Header,Millis,PCFTime, BMETemp(C),BMEPress(hPa),BMEHum(%),BMEGas(KOhms),BMEAlt(m),INACurr(mA),INAVolt(mV),INAPow(mW),LSM9DS1 AccX,LSM9DS1 AccY,LSM9DS1 AccZ,LSM9DS1 GyroX,LSM9DS1 GyroY,LSM9DS1 GyroZ,LSM9DS1 MagX,LSM9DS1 MagY,LSM9DS1 MagZ,PicoTemp(C),SGPTVOC(ppb),SGPeCO2(ppm),SGPTVOCBase(ppb),SGPeCO2Base(ppb),SGPH2,SGPEtha,ICM AccX,ICM AccY,ICM AccZ,ICM GyroX,ICM GyroY,ICM GyroZ,ICM MagX,ICM MagY,ICM MagZ, ICM TempC,MTK_Date,MTK_Lat,MTKLong,MTKSpeed,MTKAngle,MTKAlt,MTKSats,
3f82,314817,2000/1/0 4:5:16,19.83,950.90,15.92,209364,532.54,-605.00,4118.75,2500.00,2.22,8.49,3.29,-0.05,-0.00,-0.04,-9.30,8.49,-41.93,9.82,2.46,-8.93,4.11,-0.04,-0.03,-0.01,0.00,0.00,0.00,21.00,
3f82,315768,-,-,-,-,-,-,-,-,-,3.15,8.36,3.34,0.00,-0.12,-0.16,-9.08,8.08,-41.87,-,3.62,-9.07,3.58,-0.00,0.09,-0.14,0.00,0.00,0.00,216.96,
3f82,315920,2000/1/0 4:5:17,19.84,950.89,15.95,209107,532.63,-607.50,4116.25,2500.00,3.20,11.49,2.31,0.14,-0.06,-0.16,-7.15,7.79,-41.22,10.29,3.95,-10.12,5.60,0.15,0.03,-0.15,0.00,0.00,0.00,216.76,
3f82,316872,-,-,-,-,-,-,-,-,-,3.55,8.21,3.56,0.02,-0.08,-0.14,-6.33,10.36,-43.06,-,4.00,-8.32,4.93,0.02,0.06,-0.11,0.00,0.00,0.00,217.00,
3f82,317026,2000/1/0 4:5:18,19.85,950.88,15.96,207203,532.63,-602.50,4116.25,2510.00,2.51,8.31,2.98,0.07,0.11,0.05,-5.82,8.74,-41.42,10.29,2.78,-8.31,4.06,0.07,-0.14,0.09,0.00,0.00,0.00,216.86,
3f82,317974,-,-,-,-,-,-,-,-,-,3.55,8.80,2.60,0.02,0.07,0.08,-5.22,8.49,-41.49,-,3.92,-9.24,3.58,0.03,-0.08,0.13,0.00,0.00,0.00,216.86,
3f82,318124,2000/1/0 4:5:19,19.86,950.88,16.00,202171,532.72,-606.25,4118.75,2500.00,2.97,8.94,3.20,-0.22,-0.03,0.01,-5.45,9.97,-41.70,10.29,3.19,-8.56,4.24,-0.21,0.01,0.05,0.00,0.00,0.00,217.20,
3f82,319074,-,-,-,-,-,-,-,-,-,3.12,8.69,2.00,-0.23,0.09,-0.03,-3.74,8.84,-40.38,-,3.75,-8.42,3.51,-0.22,-0.12,0.01,0.00,0.00,0.00,217.00,
3f82,319228,2000/1/0 4:5:20,19.87,950.89,16.02,200273,532.54,-605.00,4117.50,2500.00,3.11,7.91,2.68,0.07,-0.16,0.02,-4.81,8.18,-41.71,10.29,3.40,-8.26,3.43,0.06,0.13,0.03,0.00,0.00,0.00,21.00,
3f82,320174,-,-,-,-,-,-,-,-,-,2.76,8.80,2.77,0.03,0.04,-0.14,-4.84,8.27,-40.47,-,3.06,-8.95,3.67,0.04,-0.09,-0.11,0.00,0.00,0.00,217.05,
3f82,320327,2000/1/0 4:5:21,19.87,950.89,16.04,198180,532.63,-612.50,4122.50,2520.00,1.18,8.56,1.93,0.12,0.16,-0.41,-8.78,6.64,-39.99,10.29,1.53,-8.60,3.15,0.12,-0.21,-0.37,0.00,0.00,0.00,217.05,
3f82,321276,-,-,-,-,-,-,-,-,-,2.50,9.03,1.99,0.11,-0.22,0.06,-6.84,6.36,-37.88,-,2.86,-9.09,3.10,0.12,0.21,0.07,0.00,0.00,0.00,217.05,
3f82,321427,2000/1/0 4:5:22,19.88,950.88,16.05,195681,532.72,-610.00,4121.25,2510.00,1.96,9.05,2.83,0.20,-0.29,-0.09,-12.95,7.69,-39.17,10.29,2.25,-9.15,3.85,0.22,0.26,-0.09,0.00,0.00,0.00,216.96,
3f82,322378,-,-,-,-,-,-,-,-,-,2.40,8.48,3.29,0.04,-0.27,-0.18,-13.50,8.74,-41.45,-,2.65,-8.68,4.34,0.04,0.23,-0.16,0.00,0.00,0.00,217.00,
3f82,322531,2000/1/0 4:5:23,19.89,950.88,16.07,182076,532.72,-618.75,4120.00,2550.00,1.58,8.64,3.79,-0.12,-0.12,-0.03,-21.29,8.04,-38.56,10.29,1.92,-8.66,4.84,-0.11,0.09,-0.00,0.00,0.00,0.00,217.05,
3f82,323484,-,-,-,-,-,-,-,-,-,1.39,8.79,3.52,-0.04,-0.11,-0.03,-21.95,7.35,-37.87,-,1.81,-8.75,4.64,-0.03,0.08,-0.00,0.00,0.00,0.00,217.05,
3f82,323640,2000/1/0 4:5:25,19.89,950.88,16.07,170439,532.72,-625.00,4122.50,2570.00,1.23,8.83,3.55,0.03,-0.04,-0.08,-22.45,6.49,-35.79,10.29,1.59,-8.88,4.56,0.03,0.01,-0.04,0.00,0.00,0.00,217.05,
3f82,324590,-,-,-,-,-,-,-,-,-,1.18,8.70,3.66,0.04,-0.08,-0.04,-21.79,7.44,-36.54,-,1.46,-8.74,4.56,0.04,0.05,-0.01,0.00,0.00,0.00,217.20,
3f82,324744,2000/1/0 4:5:26,19.90,950.89,16.11,163735,532.63,-623.75,4123.75,2570.00,1.07,8.86,3.67,0.03,0.06,0.02,-22.83,8.10,-37.12,10.29,1.42,-8.84,4.68,0.04,-0.08,0.05,0.00,0.00,0.00,216.96,
3f82,325693,-,-,-,-,-,-,-,-,-,1.24,8.51,3.59,0.05,0.05,-0.04,-22.45,8.14,-37.53,-,1.59,-8.57,4.66,0.05,-0.08,-0.00,0.00,0.00,0.00,217.15,
3f82,325846,2000/1/0 4:5:27,19.91,950.90,16.12,160804,532.54,-626.25,4125.00,2590.00,1.45,9.38,2.73,-0.01,-0.01,-0.02,-18.56,5.22,-36.00,9.82,1.67,-9.30,3.65,-0.01,-0.02,0.01,0.00,0.00,0.00,21.00,
3f82,326797,-,-,-,-,-,-,-,-,-,1.54,8.95,2.81,0.07,-0.01,-0.11,-19.70,5.57,-35.55,-,1.96,-9.01,3.87,0.07,-0.02,-0.08,0.00,0.00,0.00,216.96,
3f82,326952,2000/1/0 4:5:28,19.92,950.89,16.17,155104,532.63,-622.50,4125.00,2570.00,1.74,9.04,2.41,0.01,0.03,-0.02,-17.13,4.50,-34.84,11.22,2.20,-9.23,3.41,0.01,-0.06,0.02,0.00,0.00,0.00,216.81,
3f82,327902,-,-,-,-,-,-,-,-,-,2.05,9.13,1.98,0.04,0.01,0.01,-17.16,4.22,-34.74,-,2.37,-9.23,3.17,0.04,-0.04,0.05,0.00,0.00,0.00,21.00,
3f82,328051,2000/1/0 4:5:29,19.92,950.89,16.22,152199,532.72,-618.75,4123.75,2550.00,1.39,9.12,2.68,-0.01,-0.08,0.09,-16.81,5.23,-37.11,10.29,1.78,-9.02,3.58,-0.01,0.05,0.11,0.00,0.00,0.00,217.00,
3f82,329002,-,-,-,-,-,-,-,-,-,1.34,8.78,2.68,-0.05,0.04,-0.15,-16.47,5.19,-36.86,-,1.64,-8.92,3.74,-0.05,-0.08,-0.11,0.00,0.00,0.00,216.81,
3f82,329158,2000/1/0 4:5:30,19.93,950.88,16.26,154963,532.72,-610.00,4122.50,2510.00,1.56,9.40,2.65,-0.03,-0.04,-0.11,-15.65,4.02,-36.20,10.75,1.95,-9.34,3.69,-0.03,-0.00,-0.09,0.00,0.00,0.00,216.96,
3f82,330112,-,-,-,-,-,-,-,-,-,1.31,8.94,2.55,0.09,-0.08,0.10,-16.46,4.27,-35.72,-,1.59,-9.07,3.49,0.09,0.05,0.13,0.00,0.00,0.00,216.81,
3f82,330263,2000/1/0 4:5:31,19.94,950.89,16.30,159750,532.54,-618.75,4090.00,2530.00,1.68,8.94,3.38,0.02,-0.11,-0.04,-19.60,7.18,-37.55,12.16,1.93,-8.93,4.41,0.02,0.08,-0.02,0.00,0.00,0.00,21.00,
3f82,331213,-,-,-,-,-,-,-,-,-,1.36,8.67,3.26,0.00,-0.18,0.03,-20.71,7.04,-36.25,-,1.69,-8.80,4.30,0.01,0.16,0.05,0.00,0.00,0.00,217.05,
3f82,331365,2000/1/0 4:5:32,19.95,950.89,16.33,165803,532.63,-591.25,4118.75,2430.00,0.83,8.58,3.42,-0.03,-0.11,-0.01,-22.60,6.81,-35.25,10.29,1.30,-9.04,4.21,-0.05,0.09,0.02,0.00,0.00,0.00,21.00,
3f82,332315,-,-,-,-,-,-,-,-,-,0.98,9.03,3.19,0.01,0.06,-0.02,-23.81,6.84,-36.13,-,1.28,-9.09,4.01,0.02,-0.09,0.02,0.00,0.00,0.00,217.05,
3f82,332468,2000/1/0 4:5:33,19.95,950.88,16.35,169592,532.63,-596.25,4118.75,2460.00,1.34,9.02,2.51,-0.03,-0.02,0.07,-19.53,4.25,-34.58,10.29,1.44,-9.04,3.75,-0.02,-0.02,0.11,0.00,0.00,0.00,217.05,
3f82,333420,-,-,-,-,-,-,-,-,-,0.68,9.66,2.18,0.05,0.04,-0.08,-20.15,4.59,-33.63,-,0.91,-9.39,3.25,0.06,-0.08,-0.05,0.00,0.00,0.00,217.05,
3f82,333574,2000/1/0 4:5:34,19.96,950.89,16.37,171123,532.54,-606.25,4120.00,2500.00,1.62,9.36,2.00,0.03,0.01,-0.11,-17.11,2.47,-32.86,10.75,1.97,-9.54,3.02,0.03,-0.05,-0.09,0.00,0.00,0.00,217.05,
3f82,334524,-,-,-,-,-,-,-,-,-,2.05,9.91,1.77,0.00,-0.13,0.08,-16.53,2.97,-33.79,-,2.37,-9.51,2.93,0.02,0.11,0.10,0.00,0.00,0.00,217.05,
3f82,334676,2000/1/0 4:5:36,19.97,950.89,16.38,172856,532.54,-602.50,4122.50,2500.00,2.12,9.23,1.96,0.02,-0.04,-0.11,-15.46,2.73,-34.10,10.75,2.34,-9.43,3.17,0.02,0.01,-0.08,0.00,0.00,0.00,217.20,
3f82,335627,-,-,-,-,-,-,-,-,-,3.50,7.48,3.18,0.04,0.11,0.19,-15.52,2.41,-33.88,-,3.64,-9.60,3.70,-0.02,-0.12,0.23,0.00,0.00,0.00,217.15,
3f82,335779,2000/1/0 4:5:37,19.98,950.89,16.41,173736,532.63,-600.00,4121.25,2470.00,1.89,9.02,2.09,0.00,-0.05,0.00,-15.14,2.22,-33.15,11.22,2.26,-9.33,2.95,-0.00,0.01,0.03,0.00,0.00,0.00,216.96,
3f82,336729,-,-,-,-,-,-,-,-,-,2.08,9.54,1.97,0.05,-0.05,-0.13,-15.24,2.28,-34.08,-,2.41,-9.51,2.93,0.06,0.01,-0.11,0.00,0.00,0.00,217.00,
3f82,336883,2000/1/0 4:5:38,19.98,950.89,16.44,175522,532.63,-607.50,4118.75,2500.00,1.89,9.22,2.16,0.08,-0.34,0.22,-16.68,3.20,-35.19,10.29,2.22,-9.56,3.33,0.08,0.33,0.24,0.00,0.00,0.00,217.00,
3f82,337830,-,-,-,-,-,-,-,-,-,1.76,9.06,2.18,-0.18,-0.09,0.04,-19.61,4.52,-34.60,-,2.18,-9.19,3.34,-0.18,0.06,0.08,0.00,0.00,0.00,217.15,
3f82,337983,2000/1/0 4:5:39,19.99,950.88,16.46,176978,532.63,-597.50,4120.00,2460.00,0.97,9.05,2.61,-0.03,-0.01,-0.06,-25.40,4.95,-31.10,10.29,1.24,-9.28,3.66,-0.02,-0.02,-0.03,0.00,0.00,0.00,216.96,
3f82,338937,-,-,-,-,-,-,-,-,-,0.75,9.59,2.55,0.05,0.02,0.01,-25.11,4.56,-31.67,-,0.94,-9.17,3.78,0.08,-0.04,0.03,0.00,0.00,0.00,216.76,
3f82,340088,2000/1/0 4:5:41,19.87,950.88,16.49,157538,532.72,-600.00,4120.00,2470.00,0.66,9.18,2.94,0.08,0.01,-0.01,-27.20,6.05,-31.09,10.29,0.99,-9.15,4.07,0.09,-0.04,0.02,0.00,0.00,0.00,217.20,
3f82,341038,-,-,-,-,-,-,-,-,-,0.42,9.22,3.17,0.05,-0.01,-0.02,-28.24,6.56,-31.18,-,0.81,-9.34,4.11,0.06,-0.02,0.02,0.00,0.00,0.00,216.96,
3f82,341191,2000/1/0 4:5:42,19.84,950.88,16.55,175703,532.63,-583.75,4118.75,2410.00,0.14,7.52,1.89,-0.20,-0.05,0.24,-26.98,6.80,-32.45,10.75,1.15,-7.91,4.56,-0.21,0.04,0.27,0.00,0.00,0.00,217.05,
3f82,342142,-,-,-,-,-,-,-,-,-,1.06,8.67,3.25,-0.25,0.11,-0.41,-26.50,5.90,-31.77,-,1.26,-9.38,3.90,-0.26,-0.17,-0.37,0.00,0.00,0.00,217.05,
3f82,342297,2000/1/0 4:5:43,19.88,950.89,16.59,184238,532.54,-593.75,4117.50,2440.00,0.90,9.82,2.20,-0.14,-0.33,-0.04,-25.74,3.33,-26.00,11.22,0.94,-9.98,3.62,-0.12,0.31,-0.03,0.00,0.00,0.00,217.15,
3f82,343250,-,-,-,-,-,-,-,-,-,1.28,8.85,2.69,0.12,-0.47,0.01,-25.93,3.03,-27.39,-,1.77,-8.91,4.07,0.12,0.45,0.00,0.00,0.00,0.00,217.15,
3f82,343401,2000/1/0 4:5:44,19.92,950.89,16.60,186861,532.63,220.00,3951.25,870.00,1.58,10.32,3.14,-0.30,0.04,-0.15,-27.51,4.59,-26.37,11.22,1.47,-9.30,3.77,-0.27,-0.06,-0.09,0.00,0.00,0.00,217.05,
3f82,344352,-,-,-,-,-,-,-,-,-,-0.02,8.57,3.44,0.11,0.13,-0.04,-28.18,4.63,-26.37,-,0.45,-8.69,4.52,0.12,-0.16,-0.00,0.00,0.00,0.00,21.00,
3f82,344506,2000/1/0 4:5:45,19.95,950.89,16.58,192481,532.54,208.75,3946.25,820.00,1.11,8.79,4.35,0.07,-0.04,-0.21,-25.17,4.52,-31.19,11.22,1.44,-8.69,5.26,0.08,-0.00,-0.19,0.00,0.00,0.00,217.05,
3f82,345455,-,-,-,-,-,-,-,-,-,1.69,8.36,4.44,-0.02,-0.12,0.10,-24.16,4.02,-31.09,-,1.98,-8.37,5.38,-0.01,0.11,0.13,0.00,0.00,0.00,217.05,
3f82,345608,2000/1/0 4:5:46,19.98,950.89,16.57,194344,532.45,210.00,3946.25,830.00,0.12,8.44,4.24,-0.58,-0.10,0.59,-32.33,6.61,-27.93,11.22,0.10,-8.98,4.97,-0.60,0.09,0.62,0.00,0.00,0.00,21.00,
3f82,346555,-,-,-,-,-,-,-,-,-,0.96,7.83,3.81,0.09,0.21,-0.48,-29.44,6.09,-29.82,-,1.36,-8.26,5.04,0.09,-0.25,-0.42,0.00,0.00,0.00,217.05,
3f82,346708,2000/1/0 4:5:48,20.00,950.90,16.53,197492,532.45,221.25,3942.50,870.00,1.35,8.70,4.10,0.09,-0.14,0.27,-26.05,6.55,-33.09,11.69,1.66,-8.83,5.11,0.09,0.14,0.30,0.00,0.00,0.00,217.20,
3f82,347654,-,-,-,-,-,-,-,-,-,0.66,8.87,4.22,0.23,0.04,0.01,-28.41,8.07,-34.30,-,0.89,-8.62,5.32,0.24,-0.06,0.05,0.00,0.00,0.00,21.05,
3f82,347803,2000/1/0 4:5:49,20.02,950.90,16.50,199571,532.54,210.00,3943.75,830.00,0.67,8.21,4.67,0.00,-0.10,-0.13,-27.07,7.85,-33.22,11.69,0.99,-8.01,5.63,0.00,0.07,-0.10,0.00,0.00,0.00,217.15,
3f82,348751,-,-,-,-,-,-,-,-,-,0.93,8.47,4.56,0.07,-0.05,0.03,-26.72,7.86,-33.98,-,1.28,-8.48,5.65,0.08,0.03,0.07,0.00,0.00,0.00,21.10,
3f82,348900,2000/1/0 4:5:50,20.03,950.90,16.46,200744,532.54,203.75,3945.00,810.00,2.03,8.00,4.85,0.08,-0.08,0.01,-24.29,7.16,-35.28,11.69,2.36,-8.14,6.14,0.08,0.07,0.04,0.00,0.00,0.00,21.00,
3f82,349845,-,-,-,-,-,-,-,-,-,1.73,7.89,5.20,0.08,0.02,-0.04,-23.82,8.21,-36.04,-,2.02,-7.75,6.36,0.08,-0.05,-0.01,0.00,0.00,0.00,21.00,
3f82,349997,2000/1/0 4:5:51,20.05,950.91,16.41,201218,532.45,217.50,3943.75,860.00,4.15,2.04,8.46,1.04,0.23,-0.94,-13.34,30.49,-51.77,11.22,4.28,-1.75,9.22,1.08,-0.29,-0.91,0.00,0.00,0.00,216.86,
3f82,350947,-,-,-,-,-,-,-,-,-,4.21,-1.25,7.94,0.65,0.23,-0.46,-10.03,38.40,-53.42,-,4.38,1.35,8.31,0.68,-0.28,-0.43,0.00,0.00,0.00,216.96,
3f82,351100,2000/1/0 4:5:52,20.05,950.90,16.36,206077,532.63,216.25,3943.75,860.00,5.19,-4.49,6.96,-0.28,0.23,-0.11,-5.80,49.25,-52.81,11.22,5.25,4.89,7.22,-0.29,-0.27,-0.06,0.00,0.00,0.00,217.15,
3f82,352050,-,-,-,-,-,-,-,-,-,4.93,-1.67,7.43,-0.07,-0.22,-0.09,-4.88,45.31,-53.24,-,5.48,2.96,8.18,-0.03,0.19,-0.07,0.00,0.00,0.00,216.86,
3f82,352206,2000/1/0 4:5:53,20.06,950.90,16.30,208851,532.54,207.50,3945.00,820.00,4.59,-5.48,6.04,-0.13,0.11,-0.27,-2.48,54.17,-51.49,11.69,4.72,5.65,6.21,-0.13,-0.15,-0.23,0.00,0.00,0.00,217.00,
3f82,353156,-,-,-,-,-,-,-,-,-,5.23,-5.51,6.12,-0.54,0.12,-0.26,-0.28,51.37,-52.06,-,5.41,5.62,6.38,-0.55,-0.17,-0.20,0.00,0.00,0.00,217.20,
3f82,353312,2000/1/0 4:5:54,20.06,950.88,16.22,211177,532.63,215.00,3943.75,840.00,4.58,-3.88,7.29,0.01,-0.46,-0.15,-2.97,40.49,-54.02,11.22,4.83,4.09,7.69,0.01,0.44,-0.15,0.00,0.00,0.00,21.05,
3f82,354259,-,-,-,-,-,-,-,-,-,4.28,-2.99,7.59,-0.09,0.07,0.55,-6.05,38.70,-52.72,-,4.41,3.16,7.93,-0.08,-0.07,0.61,0.00,0.00,0.00,21.05,
3f82,354411,2000/1/0 4:5:55,20.07,950.90,16.15,212889,532.54,230.00,3938.75,910.00,4.21,-4.32,7.19,0.21,-0.26,0.06,-6.64,47.73,-52.92,11.22,4.41,4.76,7.46,0.22,0.25,0.06,0.00,0.00,0.00,21.10,
3f82,355356,-,-,-,-,-,-,-,-,-,3.80,-5.28,7.19,-0.08,0.06,-0.07,-8.74,49.31,-52.32,-,4.00,5.47,7.25,-0.08,-0.10,-0.03,0.00,0.00,0.00,21.00,
3f82,355510,2000/1/0 4:5:56,20.08,950.88,16.06,212757,532.63,227.50,3940.00,900.00,3.43,-4.73,6.94,0.49,-0.35,0.46,-9.84,48.87,-52.06,11.22,3.67,5.12,7.24,0.51,0.36,0.48,0.00,0.00,0.00,216.96,
3f82,356457,-,-,-,-,-,-,-,-,-,3.75,-4.47,7.77,-0.05,-0.20,0.16,-10.87,49.62,-52.66,-,3.88,4.98,7.98,-0.05,0.18,0.18,0.00,0.00,0.00,21.19,
3f82,356609,2000/1/0 4:5:57,20.09,950.87,15.97,214225,532.80,223.75,3937.50,880.00,3.40,-4.99,7.31,-0.15,0.10,0.06,-11.30,51.30,-51.67,11.22,3.62,5.39,7.54,-0.14,-0.13,0.10,0.00,0.00,0.00,217.05,
3f82,357558,-,-,-,-,-,-,-,-,-,3.50,-4.77,7.52,-0.03,-0.02,-0.09,-11.63,50.45,-52.48,-,3.70,5.00,7.76,-0.02,-0.01,-0.06,0.00,0.00,0.00,217.20,
3f82,357716,2000/1/0 4:5:59,20.09,950.87,15.88,215715,532.72,457.50,3732.50,1700.00,3.12,-4.49,7.87,-0.21,-0.12,-0.11,-10.73,47.18,-52.40,11.22,3.31,4.55,8.20,-0.21,0.08,-0.07,0.00,0.00,0.00,217.20,
3f82,358668,-,-,-,-,-,-,-,-,-,3.03,-4.08,8.03,0.13,-0.11,-0.27,-10.38,45.72,-52.84,-,3.28,4.39,8.28,0.14,0.08,-0.24,0.00,0.00,0.00,21.10,
3f82,358821,2000/1/0 4:6:0,20.09,950.88,15.78,217779,532.72,227.50,3936.25,900.00,2.85,-4.83,7.77,-0.36,0.09,-0.30,-10.38,44.91,-53.46,11.22,3.02,5.16,7.94,-0.37,-0.15,-0.25,0.00,0.00,0.00,217.15,
3f82,359772,-,-,-,-,-,-,-,-,-,3.00,-4.36,8.23,0.13,-0.09,0.16,-10.04,41.77,-53.96,-,3.18,4.63,8.34,0.14,0.07,0.19,0.00,0.00,0.00,217.20,
3f82,359923,2000/1/0 4:6:1,20.10,950.87,15.70,218756,532.72,221.25,3940.00,870.00,3.41,-2.87,8.76,-0.05,-0.05,0.01,-12.10,39.83,-53.64,11.22,3.54,3.25,8.98,-0.04,0.02,0.04,0.00,0.00,0.00,217.20,
3f82,360872,-,-,-,-,-,-,-,-,-,3.14,-3.98,8.06,0.16,-0.12,-0.09,-11.91,41.48,-53.58,-,3.17,4.42,8.25,0.16,0.09,-0.07,0.00,0.00,0.00,21.00,
3f82,361024,2000/1/0 4:6:2,20.10,950.87,15.60,220737,532.72,221.25,3938.75,870.00,4.83,-2.33,8.23,0.12,-0.14,0.03,-9.63,40.32,-52.59,11.22,5.05,3.04,8.79,0.14,0.14,0.04,0.00,0.00,0.00,217.20,
3f82,361969,-,-,-,-,-,-,-,-,-,2.71,-1.16,8.16,0.01,-0.11,0.05,-12.10,42.36,-51.42,-,2.91,2.84,8.85,0.07,0.09,0.07,0.00,0.00,0.00,217.15,
3f82,362121,2000/1/0 4:6:3,20.11,950.88,15.52,219318,532.72,232.50,3936.25,910.00,3.59,-3.89,7.91,-0.16,0.07,0.14,-11.60,43.79,-52.48,11.22,3.87,4.69,7.94,-0.18,-0.10,0.18,0.00,0.00,0.00,21.00,
3f82,363068,-,-,-,-,-,-,-,-,-,4.54,-2.34,7.99,-0.46,-0.18,0.04,-10.23,40.35,-53.01,-,4.84,3.15,8.55,-0.47,0.14,0.06,0.00,0.00,0.00,21.00,
3f82,363221,2000/1/0 4:6:4,20.12,950.87,15.44,220025,532.72,223.75,3937.50,880.00,2.00,1.83,8.94,-0.82,-0.40,0.02,-20.01,19.50,-46.21,11.22,2.23,-1.72,9.39,-0.83,0.35,0.05,0.00,0.00,0.00,21.00,
3f82,364169,-,-,-,-,-,-,-,-,-,2.16,4.85,9.71,-0.32,0.09,-0.03,-20.59,14.73,-42.43,-,2.36,-4.49,10.22,-0.30,-0.12,0.01,0.00,0.00,0.00,217.05,
3f82,364325,2000/1/0 4:6:5,20.13,950.88,15.35,220594,532.72,232.50,3938.75,910.00,1.16,2.75,9.67,-0.01,-0.07,-0.19,-21.76,12.85,-40.63,11.22,1.40,-2.89,10.05,-0.02,0.03,-0.15,0.00,0.00,0.00,21.10,
3f82,365276,-,-,-,-,-,-,-,-,-,1.03,2.90,9.12,0.18,-0.16,-0.17,-21.56,12.48,-40.46,-,1.29,-2.54,9.64,0.19,0.13,-0.15,0.00,0.00,0.00,21.10,
3f82,365429,2000/1/0 4:6:6,20.13,950.86,15.29,219742,532.80,207.50,3942.50,820.00,2.03,1.79,9.01,0.05,0.05,-0.02,-19.23,16.30,-44.67,11.22,2.39,-1.11,10.03,0.07,-0.07,0.01,0.00,0.00,0.00,217.20,
3f82,366377,-,-,-,-,-,-,-,-,-,1.46,1.63,9.16,0.14,-0.02,0.08,-19.83,16.88,-44.77,-,1.69,-1.16,9.84,0.14,-0.01,0.12,0.00,0.00,0.00,217.05,
3f82,366530,2000/1/0 4:6:7,20.14,950.87,15.21,219884,532.80,200.00,3942.50,790.00,1.62,1.74,8.82,-0.01,0.11,0.01,-21.66,18.46,-44.68,11.22,1.91,-1.37,9.44,0.01,-0.14,0.05,0.00,0.00,0.00,21.10,
3f82,367476,-,-,-,-,-,-,-,-,-,0.75,3.86,8.72,-0.11,0.02,0.02,-21.46,17.07,-44.40,-,1.14,-2.32,10.13,-0.07,-0.05,0.05,0.00,0.00,0.00,21.00,
3f82,367630,2000/1/0 4:6:8,20.14,950.87,15.17,220737,532.80,205.00,3942.50,810.00,0.57,2.91,9.35,-0.01,0.13,-0.21,-22.55,11.43,-40.03,11.22,0.89,-2.88,10.18,0.01,-0.17,-0.14,0.00,0.00,0.00,21.24,
3f82,368579,-,-,-,-,-,-,-,-,-,0.12,1.08,8.98,0.25,0.03,-0.06,-21.18,13.04,-40.89,-,0.28,-0.85,9.56,0.25,-0.06,-0.04,0.00,0.00,0.00,21.10,
3f82,368731,2000/1/0 4:6:10,20.15,950.87,15.11,222608,532.80,207.50,3937.50,820.00,1.65,1.20,9.81,-0.07,0.04,0.22,-21.46,17.44,-44.29,11.22,1.81,-1.31,10.15,-0.08,-0.05,0.26,0.00,0.00,0.00,21.10,
3f82,369681,-,-,-,-,-,-,-,-,-,1.12,1.23,9.25,0.27,-0.11,0.03,-22.71,18.69,-45.76,-,1.38,-0.85,9.91,0.28,0.09,0.05,0.00,0.00,0.00,21.19,
3f82,369832,2000/1/0 4:6:11,20.15,950.87,15.04,222753,532.80,210.00,3940.00,830.00,-0.27,0.02,9.87,0.02,0.05,0.17,-25.97,25.97,-47.35,11.22,0.03,0.52,10.19,0.03,-0.07,0.22,0.00,0.00,0.00,217.15,
3f82,370780,-,-,-,-,-,-,-,-,-,0.67,0.55,9.44,0.33,0.18,0.32,-26.89,27.65,-47.81,-,0.91,-0.20,10.07,0.34,-0.18,0.36,0.00,0.00,0.00,217.15,
3f82,370933,2000/1/0 4:6:12,20.16,950.86,14.99,222753,532.89,218.75,3938.75,860.00,0.47,-0.08,9.38,0.09,0.47,0.51,-30.40,34.36,-46.67,11.22,0.67,0.77,10.12,0.09,-0.47,0.57,0.00,0.00,0.00,21.10,
3f82,371881,-,-,-,-,-,-,-,-,-,0.50,-0.03,9.44,0.03,-0.16,-0.03,-29.90,35.46,-46.64,-,0.66,0.37,9.83,0.04,0.14,-0.00,0.00,0.00,0.00,21.10,
3f82,372034,2000/1/0 4:6:13,20.17,950.86,14.94,221597,532.80,206.25,3941.25,820.00,0.86,0.09,9.02,0.14,-0.41,-0.27,-31.16,35.72,-45.81,11.22,0.97,0.12,9.76,0.15,0.38,-0.28,0.00,0.00,0.00,21.19,
3f82,372981,-,-,-,-,-,-,-,-,-,0.88,-0.69,8.70,0.00,0.12,0.05,-31.23,36.66,-45.47,-,1.07,1.38,9.55,0.01,-0.14,0.10,0.00,0.00,0.00,21.00,
3f82,373131,2000/1/0 4:6:14,20.18,950.87,14.90,220025,532.89,203.75,3940.00,810.00,1.08,0.34,9.86,0.03,0.02,-0.01,-34.87,38.67,-45.78,10.29,1.14,0.05,10.38,0.04,-0.04,0.01,0.00,0.00,0.00,21.10,
3f82,374078,-,-,-,-,-,-,-,-,-,0.98,0.43,9.82,-0.04,0.13,-0.03,-32.34,39.16,-43.47,-,1.16,0.13,10.30,-0.02,-0.16,0.01,0.00,0.00,0.00,21.24,
3f82,374232,2000/1/0 4:6:15,20.19,950.86,14.87,217640,532.89,217.50,3938.75,860.00,1.67,0.27,10.12,-0.16,-0.23,0.16,-31.26,36.36,-42.59,10.75,1.92,-0.15,10.44,-0.17,0.21,0.19,0.00,0.00,0.00,21.19,
3f82,375182,-,-,-,-,-,-,-,-,-,1.57,0.39,9.41,-0.02,0.02,0.02,-32.43,36.86,-42.60,-,1.77,-0.00,10.03,-0.02,-0.05,0.06,0.00,0.00,0.00,217.20,
3f82,375337,2000/1/0 4:6:16,20.20,950.85,14.82,216949,532.89,205.00,3942.50,810.00,0.79,0.74,9.37,0.00,0.00,-0.02,-33.60,36.36,-41.60,11.22,1.09,-0.15,10.39,0.02,-0.03,0.01,0.00,0.00,0.00,217.20,
3f82,376286,-,-,-,-,-,-,-,-,-,0.66,0.89,9.24,-0.03,-0.01,0.01,-33.79,36.51,-40.62,-,1.07,-0.58,9.86,-0.01,-0.01,0.05,0.00,0.00,0.00,21.05,
3f82,376440,2000/1/0 4:6:17,20.20,950.85,14.80,214360,532.98,231.25,3933.75,910.00,0.62,0.69,9.48,0.00,-0.12,0.02,-35.65,36.69,-41.73,11.22,0.90,-0.36,10.16,0.01,0.10,0.05,0.00,0.00,0.00,21.19,
3f82,377388,-,-,-,-,-,-,-,-,-,0.42,1.01,9.59,0.01,-0.09,-0.05,-37.01,37.26,-40.24,-,0.75,-0.61,10.24,0.01,0.06,-0.02,0.00,0.00,0.00,21.00,
3f82,377541,2000/1/0 4:6:18,20.21,950.85,14.79,212889,532.89,225.00,3933.75,880.00,0.20,0.61,9.44,0.00,0.06,-0.02,-37.43,37.52,-40.53,11.22,0.55,-0.42,10.10,0.00,-0.09,0.02,0.00,0.00,0.00,21.00,
3f82,378489,-,-,-,-,-,-,-,-,-,0.53,0.98,9.43,0.13,-0.11,-0.05,-35.84,37.34,-42.33,-,0.81,-0.67,10.13,0.14,0.09,-0.03,0.00,0.00,0.00,217.05,
3f82,378644,2000/1/0 4:6:20,20.22,950.85,14.78,210396,532.98,213.75,3937.50,840.00,0.32,0.93,9.80,0.07,0.06,-0.26,-32.17,36.42,-45.12,11.22,0.34,-0.60,10.28,0.08,-0.10,-0.23,0.00,0.00,0.00,21.00,
3f82,379593,-,-,-,-,-,-,-,-,-,0.36,0.68,9.71,0.06,-0.14,0.01,-31.32,36.04,-46.27,-,0.33,-0.27,10.10,0.07,0.13,0.03,0.00,0.00,0.00,21.00,
3f82,379744,2000/1/0 4:6:21,20.22,950.86,14.77,209492,532.89,213.75,3940.00,840.00,0.76,0.04,10.23,-0.07,-0.05,-0.22,-29.32,32.46,-45.45,10.75,0.65,0.36,10.16,-0.10,0.01,-0.20,0.00,0.00,0.00,21.00,
3f82,380696,-,-,-,-,-,-,-,-,-,0.19,0.70,9.80,-0.08,-0.22,-0.13,-29.32,29.90,-44.31,-,0.38,-0.42,10.43,-0.07,0.19,-0.12,0.00,0.00,0.00,21.05,
3f82,380852,2000/1/0 4:6:22,20.23,950.86,14.77,207707,532.89,218.75,3941.25,840.00,0.04,-1.23,10.69,-0.10,0.08,0.13,-30.65,31.91,-44.84,11.22,0.16,-0.07,10.12,-0.13,-0.10,0.18,0.00,0.00,0.00,21.10,
3f82,381804,-,-,-,-,-,-,-,-,-,0.04,0.23,9.71,-0.11,-0.04,0.03,-30.66,32.74,-44.01,-,0.16,0.42,10.52,-0.11,0.01,0.07,0.00,0.00,0.00,21.10,
3f82,381957,2000/1/0 4:6:23,20.24,950.85,14.77,206326,532.98,220.00,3938.75,860.00,-0.04,1.10,9.60,-0.00,-0.05,0.08,-32.81,34.27,-42.74,10.75,0.27,-0.71,10.42,0.01,0.03,0.12,0.00,0.00,0.00,21.19,
3f82,382906,-,-,-,-,-,-,-,-,-,-0.47,0.68,9.56,0.04,0.10,-0.04,-33.03,34.57,-42.96,-,-0.44,-0.87,9.99,0.04,-0.14,0.01,0.00,0.00,0.00,217.05,
3f82,383062,2000/1/0 4:6:24,20.24,950.86,14.79,203619,532.89,217.50,3938.75,860.00,0.06,1.00,9.54,0.02,-0.05,-0.16,-30.87,34.11,-44.74,11.22,0.33,-0.79,10.11,0.02,0.01,-0.13,0.00,0.00,0.00,21.10,
3f82,384011,-,-,-,-,-,-,-,-,-,0.44,0.72,9.55,0.12,-0.07,-0.07,-30.65,34.27,-45.24,-,0.57,-0.46,10.37,0.13,0.05,-0.05,0.00,0.00,0.00,21.00,
3f82,384165,2000/1/0 4:6:25,20.25,950.86,14.79,202291,532.98,216.25,3940.00,860.00,0.11,0.80,9.54,-0.04,-0.04,-0.05,-30.68,34.26,-44.53,10.75,0.36,-0.49,10.16,-0.03,0.00,-0.02,0.00,0.00,0.00,21.05,
3f82,385116,-,-,-,-,-,-,-,-,-,-0.34,0.34,9.79,0.02,-0.07,0.05,-30.23,34.89,-44.37,-,-0.15,-0.57,10.31,0.01,0.04,0.08,0.00,0.00,0.00,21.24,
3f82,385271,2000/1/0 4:6:26,20.26,950.86,14.81,202411,532.98,220.00,3940.00,870.00,0.03,0.58,9.58,-0.00,-0.09,-0.02,-29.45,33.79,-44.96,10.75,0.28,-0.33,9.89,0.00,0.06,-0.00,0.00,0.00,0.00,217.05,
3f82,386221,-,-,-,-,-,-,-,-,-,0.26,0.60,9.49,0.02,-0.06,-0.02,-29.33,34.55,-44.75,-,0.48,-0.28,10.03,0.03,0.03,0.01,0.00,0.00,0.00,21.10,
3f82,386374,2000/1/0 4:6:27,20.27,950.85,14.84,202052,532.89,225.00,3937.50,880.00,0.32,0.77,9.39,-0.08,-0.07,-0.01,-30.17,33.79,-45.16,11.22,0.67,-0.20,10.19,-0.07,0.04,0.01,0.00,0.00,0.00,21.19,
3f82,387325,-,-,-,-,-,-,-,-,-,0.48,0.67,9.83,0.01,-0.05,-0.01,-30.15,33.59,-44.14,-,0.71,-0.40,10.47,0.01,0.02,0.02,0.00,0.00,0.00,21.05,
3f82,387478,2000/1/0 4:6:28,20.28,950.85,14.85,201455,532.89,200.00,3941.25,790.00,0.34,0.67,9.64,0.11,-0.02,-0.07,-29.68,33.35,-44.45,11.22,0.62,-0.25,10.30,0.12,-0.01,-0.05,0.00,0.00,0.00,21.19,
3f82,388428,-,-,-,-,-,-,-,-,-,0.62,0.71,9.55,0.05,0.03,-0.17,-29.01,33.29,-45.18,-,0.76,-0.18,10.19,0.07,-0.07,-0.13,0.00,0.00,0.00,21.10,
3f82,388583,2000/1/0 4:6:29,20.28,950.86,14.88,199338,532.89,193.75,3940.00,770.00,0.17,0.71,9.64,0.05,0.07,-0.11,-28.81,32.81,-45.28,11.22,0.38,-0.39,10.29,0.07,-0.10,-0.08,0.00,0.00,0.00,21.05,
3f82,389532,-,-,-,-,-,-,-,-,-,0.80,0.50,9.87,-0.09,0.00,-0.24,-28.08,32.64,-45.06,-,1.03,-0.12,10.63,-0.08,-0.04,-0.21,0.00,0.00,0.00,217.05,
3f82,389690,2000/1/0 4:6:31,20.29,950.85,14.90,193025,532.98,193.75,3941.25,770.00,0.52,0.55,9.51,-0.05,-0.07,-0.09,-28.06,32.77,-44.72,10.75,0.55,-0.16,10.09,-0.05,0.04,-0.07,0.00,0.00,0.00,21.24,
3f82,390641,-,-,-,-,-,-,-,-,-,0.44,1.00,9.29,-0.03,-0.05,-0.06,-28.33,32.48,-44.52,-,0.57,-0.48,10.06,-0.02,0.02,-0.03,0.00,0.00,0.00,21.10,
3f82,390798,2000/1/0 4:6:32,20.29,950.86,14.94,182271,532.89,196.25,3942.50,770.00,0.50,0.42,9.43,0.02,-0.01,0.02,-29.00,32.67,-45.26,10.29,0.64,0.02,10.05,0.04,-0.01,0.05,0.00,0.00,0.00,21.10,
3f82,391745,-,-,-,-,-,-,-,-,-,0.21,0.19,9.65,0.02,-0.08,0.04,-29.10,33.12,-45.47,-,0.52,0.07,10.22,0.03,0.05,0.07,0.00,0.00,0.00,21.10,
3f82,391896,2000/1/0 4:6:33,20.31,950.86,15.01,181495,532.89,211.25,3941.25,780.00,0.05,0.70,9.37,-0.02,-0.05,-0.09,-30.88,31.98,-45.44,10.75,0.32,-0.37,9.94,-0.01,0.03,-0.06,0.00,0.00,0.00,21.29,
3f82,392846,-,-,-,-,-,-,-,-,-,0.20,0.00,9.77,0.14,0.04,-0.04,-30.34,32.10,-45.29,-,0.40,0.22,10.30,0.15,-0.06,-0.00,0.00,0.00,0.00,21.00,
3f82,392997,2000/1/0 4:6:34,20.31,950.87,15.07,184040,532.89,207.50,3941.25,820.00,0.06,0.48,9.60,0.01,-0.04,-0.06,-30.87,31.34,-44.49,10.75,0.34,-0.28,10.10,0.00,0.01,-0.03,0.00,0.00,0.00,21.19,
3f82,393947,-,-,-,-,-,-,-,-,-,0.03,0.51,9.54,0.03,-0.05,0.10,-31.13,30.93,-45.35,-,0.23,-0.20,10.09,0.03,0.03,0.13,0.00,0.00,0.00,21.38,
3f82,394099,2000/1/0 4:6:35,20.32,950.86,15.13,185037,532.89,210.00,3941.25,830.00,0.01,0.46,9.47,-0.04,-0.06,0.10,-31.96,32.18,-44.74,10.29,0.12,-0.00,10.06,-0.04,0.03,0.13,0.00,0.00,0.00,21.00,
3f82,395048,-,-,-,-,-,-,-,-,-,0.13,0.60,9.77,0.04,-0.01,0.03,-31.45,32.24,-45.70,-,0.35,-0.46,10.31,0.05,-0.01,0.06,0.00,0.00,0.00,21.10,
3f82,395201,2000/1/0 4:6:36,20.33,950.86,15.19,186656,532.89,203.75,3940.00,810.00,0.11,0.83,9.39,0.04,-0.03,-0.01,-31.39,32.93,-44.33,11.22,0.33,-0.45,10.08,0.06,0.01,0.02,0.00,0.00,0.00,21.10,
3f82,396149,-,-,-,-,-,-,-,-,-,0.26,1.16,9.45,0.04,-0.05,-0.01,-31.47,32.48,-44.45,-,0.55,-0.65,10.16,0.06,0.03,0.02,0.00,0.00,0.00,21.00,
3f82,396301,2000/1/0 4:6:37,20.34,950.86,15.24,186453,532.89,202.50,3938.75,790.00,0.63,1.04,9.78,-0.03,-0.02,-0.09,-30.36,32.18,-45.40,11.22,0.68,-0.41,10.22,-0.01,-0.01,-0.06,0.00,0.00,0.00,21.19,
3f82,397254,-,-,-,-,-,-,-,-,-,0.60,0.50,9.64,0.02,-0.03,-0.08,-30.50,31.99,-44.75,-,0.72,-0.30,10.25,0.03,0.01,-0.04,0.00,0.00,0.00,21.10,
3f82,397408,2000/1/0 4:6:38,20.34,950.86,15.27,192481,532.89,213.75,3941.25,840.00,0.34,1.08,9.56,-0.01,0.01,-0.02,-30.78,29.33,-45.37,10.75,0.70,-0.85,10.21,-0.00,-0.03,0.01,0.00,0.00,0.00,21.19,
3f82,398359,-,-,-,-,-,-,-,-,-,0.26,0.50,9.86,-0.03,-0.09,-0.06,-30.39,30.20,-44.30,-,0.50,-0.65,10.16,-0.04,0.06,-0.03,0.00,0.00,0.00,21.19,
3f82,398514,2000/1/0 4:6:39,20.35,950.86,15.31,195010,532.89,213.75,3936.25,840.00,0.52,1.00,9.48,0.03,0.00,-0.10,-29.16,29.25,-44.40,10.75,0.67,-0.67,10.03,0.04,-0.04,-0.08,0.00,0.00,0.00,21.05,
3f82,399464,-,-,-,-,-,-,-,-,-,0.73,1.00,9.53,-0.03,0.01,-0.05,-29.09,29.45,-44.49,-,1.06,-0.73,10.24,-0.02,-0.04,-0.01,0.00,0.00,0.00,21.24,
3f82,399619,2000/1/0 4:6:40,20.36,950.86,15.31,195905,532.80,218.75,3935.00,860.00,0.44,0.57,9.50,0.07,-0.01,-0.08,-29.58,29.29,-45.19,11.22,0.65,-0.16,10.18,0.08,-0.01,-0.05,0.00,0.00,0.00,21.05,
3f82,400569,-,-,-,-,-,-,-,-,-,0.59,0.87,9.57,-0.02,-0.04,0.00,-29.54,29.54,-44.49,-,0.70,-0.45,10.18,-0.01,0.02,0.04,0.00,0.00,0.00,217.20,
3f82,400725,2000/1/0 4:6:42,20.37,950.87,15.31,195121,532.89,213.75,3937.50,840.00,0.50,0.33,9.45,-0.02,-0.14,-0.01,-30.01,28.91,-45.31,10.29,0.49,-0.60,10.29,-0.03,0.12,0.01,0.00,0.00,0.00,21.24,
3f82,401675,-,-,-,-,-,-,-,-,-,0.25,0.52,9.53,0.09,-0.03,-0.09,-30.17,29.32,-45.15,-,0.50,-0.25,10.07,0.10,-0.00,-0.06,0.00,0.00,0.00,21.24,
3f82,401830,2000/1/0 4:6:43,20.38,950.87,15.30,195793,532.80,222.50,3938.75,870.00,0.43,0.37,9.78,0.01,-0.05,0.01,-29.93,29.66,-45.53,10.75,0.68,-0.23,10.25,0.01,0.03,0.04,0.00,0.00,0.00,217.20,
3f82,402778,-,-,-,-,-,-,-,-,-,0.46,-0.22,9.77,0.10,0.07,-0.04,-30.08,29.52,-45.97,-,0.63,0.19,10.17,0.10,-0.10,0.00,0.00,0.00,0.00,217.20,
3f82,402932,2000/1/0 4:6:44,20.38,950.87,15.30,197492,532.80,210.00,3940.00,830.00,0.52,0.45,9.87,-0.04,-0.07,0.01,-29.93,30.12,-45.48,10.29,0.56,-0.86,9.83,-0.05,0.04,0.05,0.00,0.00,0.00,21.24,
3f82,403881,-,-,-,-,-,-,-,-,-,0.19,0.73,9.38,0.09,0.05,-0.22,-29.90,30.01,-45.83,-,0.29,-0.44,9.90,0.10,-0.09,-0.19,0.00,0.00,0.00,21.38,
3f82,404034,2000/1/0 4:6:45,20.39,950.88,15.28,198065,532.80,210.00,3937.50,830.00,0.06,0.22,9.84,0.01,-0.08,0.03,-30.23,29.04,-45.10,10.75,0.58,-1.30,10.57,-0.02,0.07,0.06,0.00,0.00,0.00,21.10,
3f82,404982,-,-,-,-,-,-,-,-,-,0.42,1.27,9.61,-0.00,-0.00,-0.08,-29.57,29.49,-44.56,-,0.61,-0.86,10.32,0.00,-0.03,-0.05,0.00,0.00,0.00,21.00,
3f82,405138,2000/1/0 4:6:46,20.40,950.86,15.27,198180,532.89,212.50,3937.50,830.00,0.63,1.04,9.27,-0.05,-0.07,0.03,-29.07,32.94,-46.20,10.29,0.87,-0.32,10.14,-0.03,0.04,0.05,0.00,0.00,0.00,21.19,
3f82,406088,-,-,-,-,-,-,-,-,-,0.55,1.10,9.56,-0.03,-0.09,0.04,-29.67,33.22,-45.29,-,0.74,-0.68,10.27,-0.04,0.07,0.08,0.00,0.00,0.00,21.19,
3f82,406241,2000/1/0 4:6:47,20.40,950.86,15.24,198065,532.80,210.00,3937.50,830.00,0.05,0.63,9.53,0.03,-0.06,-0.03,-32.15,32.48,-44.29,10.75,0.28,-0.39,10.21,0.03,0.03,0.00,0.00,0.00,0.00,21.10,
3f82,407190,-,-,-,-,-,-,-,-,-,-0.14,0.57,9.38,0.08,-0.08,-0.03,-32.86,32.14,-44.84,-,-0.07,-0.17,9.99,0.09,0.05,-0.01,0.00,0.00,0.00,21.19,
3f82,407345,2000/1/0 4:6:48,20.41,950.87,15.24,196131,532.80,215.00,3938.75,840.00,-0.57,1.81,9.43,-0.00,-0.00,-0.23,-32.72,30.49,-44.01,11.22,-0.10,-1.17,9.68,0.03,-0.04,-0.21,0.00,0.00,0.00,21.10,
3f82,408298,-,-,-,-,-,-,-,-,-,0.16,0.47,9.80,0.09,-0.02,-0.07,-32.68,30.99,-43.53,-,0.38,-0.33,10.47,0.10,-0.02,-0.04,0.00,0.00,0.00,21.19,
3f82,408453,2000/1/0 4:6:49,20.42,950.86,15.23,194344,532.89,206.25,3940.00,810.00,-0.22,0.32,9.55,-0.05,0.00,-0.02,-33.15,32.97,-43.98,10.75,-0.07,-0.08,10.10,-0.05,-0.03,0.01,0.00,0.00,0.00,21.29,
3f82,409406,-,-,-,-,-,-,-,-,-,-0.01,0.95,9.10,0.03,0.04,-0.02,-33.60,32.96,-44.01,-,0.22,0.41,10.78,0.07,-0.06,0.02,0.00,0.00,0.00,21.00,
3f82,409558,2000/1/0 4:6:50,20.42,950.86,15.23,194233,532.89,198.75,3940.00,780.00,-0.32,1.05,9.76,-0.09,0.09,-0.00,-34.19,32.64,-42.90,10.75,-0.31,-0.94,10.65,-0.08,-0.11,0.05,0.00,0.00,0.00,21.19,
3f82,410508,-,-,-,-,-,-,-,-,-,0.00,0.00,9.32,0.13,-0.14,0.35,-34.27,34.92,-44.68,-,0.09,0.21,9.49,0.13,0.13,0.38,0.00,0.00,0.00,21.05,
3f82,410658,2000/1/0 4:6:52,20.43,950.86,15.24,193244,532.80,198.75,3938.75,780.00,0.59,0.36,9.09,0.04,-0.01,0.03,-28.43,36.35,-50.86,10.75,0.99,0.06,10.00,0.05,0.00,0.07,0.00,0.00,0.00,21.38,
3f82,411605,-,-,-,-,-,-,-,-,-,1.60,-0.17,10.07,-0.02,-0.00,0.07,-27.40,38.23,-53.48,-,1.74,0.74,10.68,-0.01,-0.02,0.11,0.00,0.00,0.00,21.10,
3f82,411761,2000/1/0 4:6:53,20.44,950.87,15.25,192916,532.89,200.00,3941.25,790.00,0.82,-0.44,9.68,0.11,0.00,0.14,-28.30,41.79,-52.56,10.75,0.92,0.97,10.01,0.10,-0.03,0.17,0.00,0.00,0.00,21.29,
3f82,412708,-,-,-,-,-,-,-,-,-,0.67,-0.70,9.64,-0.01,0.08,0.09,-28.33,43.06,-52.94,-,1.01,1.05,10.06,-0.00,-0.11,0.13,0.00,0.00,0.00,21.24,
3f82,412863,2000/1/0 4:6:54,20.45,950.87,15.26,192589,532.80,202.50,3942.50,790.00,1.16,-0.43,10.27,0.04,-0.09,-0.02,-27.32,43.98,-53.04,10.75,1.35,0.49,10.32,0.02,0.06,0.01,0.00,0.00,0.00,21.00,
3f82,413812,-,-,-,-,-,-,-,-,-,0.80,0.06,9.33,-0.11,-0.07,-0.00,-28.78,44.14,-52.86,-,0.97,0.26,9.97,-0.11,0.04,0.03,0.00,0.00,0.00,21.19,
3f82,413965,2000/1/0 4:6:55,20.46,950.87,15.28,192372,532.72,205.00,3942.50,810.00,0.87,0.14,9.68,0.07,-0.02,-0.03,-28.73,44.34,-51.07,10.75,1.02,0.29,10.28,0.07,-0.01,-0.00,0.00,0.00,0.00,21.38,
3f82,414915,-,-,-,-,-,-,-,-,-,0.99,-0.04,9.57,-0.04,-0.08,0.01,-27.95,42.21,-48.36,-,1.17,0.45,10.18,-0.04,0.05,0.04,0.00,0.00,0.00,21.38,
3f82,415069,2000/1/0 4:6:56,20.46,950.87,15.28,193572,532.80,196.25,3940.00,770.00,0.88,-0.12,9.45,0.08,-0.01,-0.05,-27.81,41.76,-49.08,10.75,1.15,0.48,10.15,0.09,-0.01,-0.01,0.00,0.00,0.00,21.24,
3f82,416019,-,-,-,-,-,-,-,-,-,1.08,-0.11,9.50,0.04,-0.05,-0.03,-27.70,41.79,-48.16,-,1.32,0.41,10.16,0.03,0.03,-0.00,0.00,0.00,0.00,21.29,
3f82,416174,2000/1/0 4:6:57,20.47,950.87,15.30,186249,532.80,200.00,3941.25,790.00,1.13,-0.32,9.91,0.04,0.00,-0.07,-28.33,41.48,-47.97,10.75,1.40,0.71,10.31,0.04,-0.04,-0.04,0.00,0.00,0.00,21.19,
3f82,417123,-,-,-,-,-,-,-,-,-,0.75,-0.06,9.41,0.04,-0.01,-0.04,-27.70,42.06,-48.39,-,0.99,0.35,10.00,0.05,-0.01,0.00,0.00,0.00,0.00,21.38,
3f82,417277,2000/1/0 4:6:58,20.48,950.87,15.32,186453,532.80,208.75,3941.25,820.00,1.18,-0.11,9.49,0.06,0.06,0.02,-27.76,41.45,-48.82,10.75,1.51,0.06,10.21,0.05,-0.08,0.08,0.00,0.00,0.00,21.05,
3f82,418225,-,-,-,-,-,-,-,-,-,1.02,-0.34,9.35,-0.04,-0.07,-0.07,-27.40,41.54,-48.01,-,1.22,0.77,9.89,-0.03,0.04,-0.04,0.00,0.00,0.00,217.20,
3f82,418380,2000/1/0 4:6:59,20.48,950.87,15.32,186453,532.80,218.75,3936.25,860.00,0.96,0.01,9.10,0.06,0.03,0.01,-27.20,41.52,-48.66,10.75,1.17,0.27,9.66,0.05,-0.06,0.06,0.00,0.00,0.00,21.24,
3f82,419325,-,-,-,-,-,-,-,-,-,1.33,-0.61,9.26,0.12,-0.02,-0.07,-26.00,41.84,-48.09,-,1.57,0.84,9.92,0.12,-0.01,-0.04,0.00,0.00,0.00,21.29,
3f82,419478,2000/1/0 4:7:0,20.49,950.87,15.35,192807,532.72,213.75,3935.00,840.00,1.08,0.40,9.36,-0.04,-0.09,0.14,-27.42,41.93,-48.85,11.22,1.32,0.10,9.97,-0.04,0.07,0.16,0.00,0.00,0.00,21.38,
3f82,420425,-,-,-,-,-,-,-,-,-,1.18,-0.19,9.45,0.08,-0.01,-0.16,-26.40,42.25,-48.64,-,1.39,0.50,9.97,0.09,-0.03,-0.14,0.00,0.00,0.00,21.24,
3f82,420579,2000/1/0 4:7:1,20.51,950.87,15.37,192916,532.80,211.25,3935.00,830.00,0.64,-0.14,9.45,-0.07,-0.15,0.02,-26.88,42.12,-47.12,11.22,0.89,0.46,9.80,-0.07,0.12,0.04,0.00,0.00,0.00,21.19,
3f82,421526,-,-,-,-,-,-,-,-,-,1.25,-0.19,9.72,0.07,-0.01,0.02,-27.73,41.76,-48.09,-,1.52,0.43,10.28,0.07,-0.02,0.06,0.00,0.00,0.00,21.43,
3f82,421678,2000/1/0 4:7:3,20.51,950.86,15.36,199221,532.80,221.25,3936.25,870.00,1.04,0.04,9.20,-0.07,0.01,-0.02,-26.91,42.30,-48.17,11.22,1.24,0.44,10.05,-0.06,-0.04,0.02,0.00,0.00,0.00,21.10,
3f82,422627,-,-,-,-,-,-,-,-,-,1.50,-0.46,9.45,0.09,0.04,-0.05,-26.54,42.74,-48.11,-,1.71,1.08,10.05,0.09,-0.07,-0.02,0.00,0.00,0.00,21.05,
3f82,422781,2000/1/0 4:7:4,20.52,950.87,15.34,200981,532.80,218.75,3937.50,860.00,1.43,0.09,9.42,0.01,0.08,-0.03,-27.07,41.84,-48.16,10.75,1.70,0.27,10.00,0.03,-0.10,0.01,0.00,0.00,0.00,21.38,
3f82,423727,-,-,-,-,-,-,-,-,-,1.17,0.03,9.35,-0.02,-0.12,-0.05,-26.86,41.25,-49.44,-,1.26,0.49,10.04,-0.01,0.10,-0.02,0.00,0.00,0.00,21.29,
3f82,423883,2000/1/0 4:7:5,20.53,950.88,15.31,199571,532.72,210.00,3936.25,830.00,0.99,-0.53,9.58,0.07,0.03,-0.09,-27.13,40.70,-48.54,10.75,1.19,0.80,10.12,0.07,-0.06,-0.06,0.00,0.00,0.00,21.53,
3f82,424831,-,-,-,-,-,-,-,-,-,0.64,0.27,9.53,-0.14,-0.18,0.01,-27.59,41.16,-47.57,-,0.84,-0.15,9.95,-0.13,0.15,0.04,0.00,0.00,0.00,21.38,
3f82,424984,2000/1/0 4:7:6,20.54,950.88,15.29,195793,532.72,217.50,3938.75,860.00,1.28,0.43,9.57,-0.09,-0.02,0.01,-27.87,41.25,-48.42,10.75,1.46,-0.11,10.30,-0.08,0.01,0.05,0.00,0.00,0.00,21.24,
3f82,425932,-,-,-,-,-,-,-,-,-,0.90,0.21,9.69,-0.01,-0.11,0.01,-28.50,41.36,-47.85,-,1.11,0.04,10.26,-0.01,0.08,0.04,0.00,0.00,0.00,21.29,
3f82,426085,2000/1/0 4:7:7,20.55,950.87,15.28,193353,532.80,981.25,3792.50,3700.00,1.26,0.49,8.95,-0.07,-0.06,-0.23,-27.35,40.76,-47.97,10.75,1.45,0.34,9.98,-0.06,0.02,-0.19,0.00,0.00,0.00,21.29,
3f82,427034,-,-,-,-,-,-,-,-,-,0.80,0.20,9.54,0.00,-0.17,-0.11,-28.33,39.61,-48.90,-,0.81,0.28,9.95,0.01,0.14,-0.10,0.00,0.00,0.00,21.19,
3f82,427185,2000/1/0 4:7:8,20.55,950.88,15.27,192481,532.80,216.25,3937.50,840.00,0.52,0.15,9.38,0.01,-0.03,-0.06,-29.58,38.35,-47.24,11.22,0.70,0.11,9.92,0.01,-0.00,-0.03,0.00,0.00,0.00,21.38,
3f82,428133,-,-,-,-,-,-,-,-,-,0.78,0.47,9.45,-0.02,0.05,-0.17,-29.07,36.90,-47.85,-,0.93,-0.16,10.12,-0.01,-0.09,-0.13,0.00,0.00,0.00,21.38,
3f82,428289,2000/1/0 4:7:9,20.56,950.87,15.26,185641,532.80,217.50,3936.25,860.00,0.97,0.39,9.34,0.03,-0.05,-0.02,-28.59,37.11,-47.57,10.75,1.10,-0.08,10.02,0.04,0.02,0.01,0.00,0.00,0.00,21.38,
3f82,429236,-,-,-,-,-,-,-,-,-,0.98,0.10,9.55,0.07,0.04,-0.01,-28.38,37.36,-47.35,-,1.15,0.13,10.17,0.08,-0.06,0.03,0.00,0.00,0.00,21.29,
3f82,429388,2000/1/0 4:7:10,20.57,950.87,15.26,186453,532.80,210.00,3937.50,830.00,1.48,0.62,9.60,-0.02,0.17,-0.08,-27.39,37.18,-48.32,11.22,1.65,-0.32,10.39,-0.01,-0.20,-0.03,0.00,0.00,0.00,21.38,
3f82,430340,-,-,-,-,-,-,-,-,-,1.09,0.05,9.59,0.08,-0.05,-0.01,-26.97,38.12,-49.31,-,1.27,0.12,10.25,0.09,0.03,0.02,0.00,0.00,0.00,21.29,
3f82,430492,2000/1/0 4:7:11,20.58,950.87,15.27,193244,532.80,195.00,3941.25,770.00,1.28,0.02,9.25,0.01,-0.04,-0.06,-27.39,38.00,-49.40,10.75,1.49,0.26,10.05,0.01,0.02,-0.01,0.00,0.00,0.00,21.58,
3f82,431440,-,-,-,-,-,-,-,-,-,0.87,0.33,9.54,-0.06,0.02,-0.02,-27.97,37.71,-49.24,-,1.06,0.13,10.01,-0.05,-0.05,0.01,0.00,0.00,0.00,21.24,
3f82,431595,2000/1/0 4:7:12,20.58,950.87,15.27,197150,532.80,193.75,3938.75,770.00,1.16,0.09,9.59,-0.03,-0.09,0.03,-27.62,38.15,-48.77,11.22,1.35,0.34,10.18,-0.01,0.07,0.05,0.00,0.00,0.00,21.38,
3f82,432543,-,-,-,-,-,-,-,-,-,0.78,-0.01,9.36,-0.02,-0.17,0.06,-28.14,38.42,-47.52,-,1.09,0.39,10.00,-0.01,0.14,0.08,0.00,0.00,0.00,21.19,
3f82,432697,2000/1/0 4:7:14,20.59,950.87,15.26,197721,532.80,197.50,3937.50,780.00,0.79,0.10,9.66,-0.05,-0.09,0.02,-28.33,38.89,-47.72,10.75,1.11,0.07,10.37,-0.04,0.07,0.05,0.00,0.00,0.00,21.24,
3f82,433645,-,-,-,-,-,-,-,-,-,0.35,-0.86,9.54,-0.09,-0.03,0.08,-29.57,38.04,-48.28,-,0.66,1.06,9.98,-0.09,0.01,0.12,0.00,0.00,0.00,21.58,
3f82,433798,2000/1/0 4:7:15,20.60,950.87,15.25,200744,532.72,206.25,3941.25,810.00,0.51,-0.01,9.60,-0.02,-0.09,-0.01,-29.04,37.88,-47.97,10.75,0.77,0.29,10.21,-0.01,0.07,0.02,0.00,0.00,0.00,21.43,
3f82,434749,-,-,-,-,-,-,-,-,-,0.52,-0.39,9.71,0.00,-0.05,0.11,-29.32,37.80,-47.40,-,0.65,0.81,10.21,0.00,0.03,0.14,0.00,0.00,0.00,21.43,
3f82,434900,2000/1/0 4:7:16,20.61,950.87,15.22,198180,532.80,193.75,3938.75,770.00,0.89,-0.30,9.63,0.01,-0.06,-0.06,-28.92,37.61,-47.63,10.29,1.11,0.74,10.26,0.02,0.03,-0.03,0.00,0.00,0.00,21.24,
3f82,435849,-,-,-,-,-,-,-,-,-,0.47,0.47,9.60,-0.04,-0.11,-0.05,-30.14,37.28,-47.03,-,0.64,0.00,10.09,-0.03,0.08,-0.04,0.00,0.00,0.00,21.38,
3f82,436005,2000/1/0 4:7:17,20.62,950.87,15.20,196243,532.72,197.50,3941.25,780.00,0.79,-0.04,9.51,0.12,0.10,-0.10,-29.49,37.46,-46.59,10.75,0.96,0.34,10.08,0.12,-0.13,-0.07,0.00,0.00,0.00,21.43,
3f82,436954,-,-,-,-,-,-,-,-,-,0.70,0.12,9.69,0.05,0.05,-0.13,-29.29,37.50,-47.19,-,0.87,0.31,10.13,0.05,-0.09,-0.10,0.00,0.00,0.00,21.24,
3f82,437106,2000/1/0 4:7:18,20.63,950.88,15.19,195681,532.72,211.25,3937.50,830.00,1.36,0.60,9.76,-0.04,0.02,-0.15,-29.28,37.23,-47.52,10.29,1.59,-0.31,10.37,-0.03,-0.05,-0.10,0.00,0.00,0.00,21.43,
3f82,438058,-,-,-,-,-,-,-,-,-,1.08,0.06,9.76,-0.01,-0.05,-0.07,-29.00,38.31,-47.94,-,1.36,0.33,10.28,-0.00,0.02,-0.04,0.00,0.00,0.00,21.19,
3f82,438213,2000/1/0 4:7:19,20.64,950.87,15.18,202651,532.80,210.00,3938.75,830.00,1.05,-0.19,9.72,-0.01,0.09,-0.05,-27.93,38.09,-48.38,11.22,1.23,0.82,10.18,-0.01,-0.13,-0.02,0.00,0.00,0.00,21.29,
3f82,439165,-,-,-,-,-,-,-,-,-,1.16,-0.06,9.55,-0.09,-0.11,-0.00,-27.57,37.49,-48.44,-,1.45,0.53,10.15,-0.08,0.08,0.02,0.00,0.00,0.00,21.38,
3f82,439320,2000/1/0 4:7:20,20.65,950.88,15.16,202531,532.72,217.50,3940.00,860.00,0.83,0.28,9.50,0.03,-0.01,-0.14,-28.63,36.83,-47.37,11.22,0.98,0.13,10.05,0.04,-0.02,-0.12,0.00,0.00,0.00,21.43,
3f82,440270,-,-,-,-,-,-,-,-,-,1.56,0.19,10.03,0.00,0.02,-0.25,-27.99,36.61,-48.33,-,1.74,0.04,10.68,0.01,-0.06,-0.22,0.00,0.00,0.00,21.24,
3f82,440422,2000/1/0 4:7:21,20.66,950.87,15.13,203376,532.72,218.75,3936.25,860.00,0.50,-0.31,9.86,0.02,-0.07,0.07,-28.88,35.84,-48.54,11.22,0.78,0.80,10.24,0.04,0.05,0.09,0.00,0.00,0.00,21.62,
3f82,441369,-,-,-,-,-,-,-,-,-,0.85,0.44,9.83,0.01,-0.05,-0.04,-28.53,36.19,-48.28,-,1.11,-0.08,10.48,0.03,0.03,-0.01,0.00,0.00,0.00,21.43,
3f82,441524,2000/1/0 4:7:22,20.67,950.87,15.11,200744,532.72,225.00,3932.50,880.00,1.00,0.06,9.68,-0.03,-0.02,-0.08,-27.46,34.55,-47.40,11.22,1.21,0.40,10.36,-0.03,-0.00,-0.05,0.00,0.00,0.00,21.43,
3f82,442475,-,-,-,-,-,-,-,-,-,0.79,0.01,9.23,-0.07,-0.05,-0.21,-28.69,33.75,-46.96,-,1.13,0.00,10.01,-0.07,0.01,-0.17,0.00,0.00,0.00,21.43,
3f82,442630,2000/1/0 4:7:24,20.68,950.87,15.07,201455,532.80,212.50,3935.00,830.00,0.52,0.02,9.88,0.03,-0.05,0.00,-29.73,33.53,-45.38,10.75,0.73,0.30,10.43,0.04,0.03,0.04,0.00,0.00,0.00,21.62,
3f82,443576,-,-,-,-,-,-,-,-,-,0.32,-0.02,9.60,-0.03,-0.10,-0.04,-30.15,33.98,-44.78,-,0.55,0.21,10.07,-0.02,0.07,-0.01,0.00,0.00,0.00,21.43,
3f82,443731,2000/1/0 4:7:25,20.69,950.87,15.05,204718,532.80,215.00,3936.25,840.00,0.46,-0.04,9.88,0.05,0.05,-0.04,-29.68,33.84,-47.56,11.22,0.68,0.34,10.39,0.06,-0.07,-0.00,0.00,0.00,0.00,21.58,
3f82,444681,-,-,-,-,-,-,-,-,-,0.29,-0.02,9.48,-0.01,-0.09,-0.05,-29.83,34.04,-47.46,-,0.54,0.30,9.95,0.00,0.06,-0.03,0.00,0.00,0.00,21.38,
3f82,444833,2000/1/0 4:7:26,20.71,950.86,15.03,201574,532.89,215.00,3937.50,840.00,0.41,0.12,9.55,0.01,0.02,-0.05,-28.90,33.44,-47.31,11.22,0.61,0.20,10.14,0.02,-0.05,-0.02,0.00,0.00,0.00,21.72,
3f82,445781,-,-,-,-,-,-,-,-,-,0.48,-0.04,9.63,-0.01,-0.15,0.05,-28.73,33.65,-47.38,-,0.70,0.51,10.16,-0.01,0.12,0.07,0.00,0.00,0.00,21.58,
3f82,445936,2000/1/0 4:7:27,20.72,950.87,15.01,202171,532.72,215.00,3937.50,840.00,0.40,0.10,9.55,0.00,-0.04,-0.08,-28.85,33.31,-46.89,10.75,0.60,0.22,10.13,0.01,0.01,-0.05,0.00,0.00,0.00,21.53,
3f82,446884,-,-,-,-,-,-,-,-,-,0.61,0.26,9.73,0.03,-0.05,-0.04,-29.01,32.89,-46.83,-,0.65,0.19,10.19,0.04,0.01,-0.01,0.00,0.00,0.00,21.53,
3f82,447037,2000/1/0 4:7:28,20.73,950.87,14.98,199804,532.80,222.50,3937.50,870.00,1.12,-0.07,9.51,0.18,-0.05,-0.40,-27.23,31.18,-46.90,10.75,1.25,0.19,10.18,0.19,0.01,-0.37,0.00,0.00,0.00,21.43,
3f82,447987,-,-,-,-,-,-,-,-,-,0.46,-0.41,9.51,0.20,-0.06,-0.74,-26.10,30.59,-46.89,-,0.52,0.81,9.88,0.21,-0.00,-0.73,0.00,0.00,0.00,21.53,
3f82,448141,2000/1/0 4:7:29,20.74,950.86,14.95,200626,532.80,225.00,3933.75,880.00,-0.32,-0.01,9.64,-0.19,-0.07,0.20,-27.38,24.07,-44.20,10.29,-0.25,0.28,10.17,-0.19,0.06,0.24,0.00,0.00,0.00,21.38,
3f82,449093,-,-,-,-,-,-,-,-,-,-1.11,0.50,9.66,0.12,0.06,-0.30,-28.05,22.86,-43.67,-,-1.05,-0.16,10.10,0.14,-0.11,-0.27,0.00,0.00,0.00,21.53,
3f82,449249,2000/1/0 4:7:30,20.75,950.87,14.95,199338,532.89,218.75,3936.25,860.00,-0.60,-0.11,9.58,0.59,0.05,-0.46,-26.41,22.27,-44.23,11.22,-0.60,0.65,10.21,0.61,-0.10,-0.44,0.00,0.00,0.00,21.62,
3f82,450201,-,-,-,-,-,-,-,-,-,-1.67,-0.62,10.19,-0.18,-0.22,-0.02,-26.48,23.15,-45.31,-,-1.61,1.14,10.48,-0.17,0.20,-0.01,0.00,0.00,0.00,21.43,
3f82,450360,2000/1/0 4:7:31,20.76,950.86,14.91,205210,532.89,203.75,3941.25,810.00,-0.65,-0.42,9.71,-0.16,0.10,0.31,-22.86,21.95,-45.07,10.29,-0.55,1.02,10.25,-0.16,-0.11,0.35,0.00,0.00,0.00,21.62,
3f82,451312,-,-,-,-,-,-,-,-,-,-0.22,-0.04,9.53,-0.30,0.12,0.29,-23.40,20.72,-44.56,-,-0.16,0.53,10.15,-0.29,-0.14,0.33,0.00,0.00,0.00,21.62,
3f82,451468,2000/1/0 4:7:32,20.76,950.86,14.90,204840,532.89,203.75,3938.75,810.00,0.09,-0.62,9.50,-0.53,-0.22,-0.16,-23.24,22.36,-45.70,10.29,0.26,0.94,9.95,-0.55,0.18,-0.13,0.00,0.00,0.00,21.62,
3f82,452418,-,-,-,-,-,-,-,-,-,-0.54,0.50,9.76,0.06,0.05,-0.09,-23.85,20.08,-44.17,-,-0.43,-0.18,10.27,0.07,-0.09,-0.05,0.00,0.00,0.00,21.58,
3f82,452575,2000/1/0 4:7:33,20.77,950.86,14.86,204106,532.80,196.25,3940.00,770.00,0.05,-0.33,9.66,0.05,0.01,-0.02,-22.27,22.58,-44.81,10.75,0.15,0.81,10.18,0.06,-0.04,0.01,0.00,0.00,0.00,21.62,
3f82,453523,-,-,-,-,-,-,-,-,-,0.10,-0.24,9.55,-0.07,-0.02,0.01,-22.49,22.65,-45.47,-,0.25,0.70,10.13,-0.06,-0.01,0.05,0.00,0.00,0.00,21.53,
3f82,453678,2000/1/0 4:7:35,20.78,950.86,14.85,205829,532.89,197.50,3938.75,780.00,0.29,1.83,9.72,-0.07,0.12,0.01,-22.41,22.11,-46.36,10.75,0.41,0.25,10.52,-0.06,-0.15,0.06,0.00,0.00,0.00,21.53,
3f82,454627,-,-,-,-,-,-,-,-,-,1.02,0.35,9.68,-0.04,0.23,-0.48,-21.00,20.77,-46.11,-,1.24,-0.02,10.24,-0.04,-0.28,-0.43,0.00,0.00,0.00,21.62,
3f82,454783,2000/1/0 4:7:36,20.79,950.87,14.83,207329,532.89,201.25,3940.00,790.00,0.62,0.39,9.46,0.01,-0.14,-0.11,-9.81,15.16,-45.50,11.22,0.80,-0.11,10.03,0.01,0.11,-0.09,0.00,0.00,0.00,21.29,
3f82,455731,-,-,-,-,-,-,-,-,-,1.21,0.19,9.32,0.12,-0.13,0.27,-10.77,16.31,-46.58,-,1.33,0.29,9.95,0.12,0.13,0.30,0.00,0.00,0.00,21.53,
3f82,455881,2000/1/0 4:7:37,20.79,950.86,14.79,207329,532.89,197.50,3937.50,780.00,-0.65,-0.40,9.71,0.19,0.09,0.05,-23.52,22.20,-46.27,11.22,-0.58,0.91,10.18,0.20,-0.11,0.09,0.00,0.00,0.00,21.72,
3f82,456831,-,-,-,-,-,-,-,-,-,-0.83,0.17,8.50,-0.04,-0.24,0.05,-24.74,23.30,-45.63,-,-0.78,1.38,9.49,0.00,0.20,0.06,0.00,0.00,0.00,21.43,
3f82,456983,2000/1/0 4:7:38,20.81,950.86,14.76,203619,532.98,198.75,3940.00,780.00,-0.81,-1.26,9.27,-0.15,-0.05,-0.01,-22.99,22.61,-46.97,11.22,-0.90,1.58,9.62,-0.15,0.02,0.01,0.00,0.00,0.00,21.43,
3f82,457935,-,-,-,-,-,-,-,-,-,0.62,-0.84,9.76,-0.10,-0.10,0.08,-21.84,23.36,-47.27,-,0.66,1.45,10.34,-0.10,0.09,0.11,0.00,0.00,0.00,21.38,
3f82,458089,2000/1/0 4:7:39,20.81,950.88,14.73,204840,532.72,196.25,3937.50,770.00,-1.17,-0.27,9.17,-0.41,0.01,-0.18,-24.03,21.62,-44.81,10.75,-1.21,0.68,9.52,-0.40,-0.05,-0.15,0.00,0.00,0.00,21.58,
3f82,459041,-,-,-,-,-,-,-,-,-,-2.18,-0.75,9.47,-0.34,-0.08,-0.08,-22.04,19.41,-44.71,-,-1.75,0.24,10.10,-0.33,0.05,-0.05,0.00,0.00,0.00,21.43,
3f82,459200,2000/1/0 4:7:40,20.82,950.87,14.71,203376,532.80,201.25,3942.50,790.00,-2.84,-2.72,8.75,0.91,-0.32,-0.46,-14.22,22.32,-47.38,10.29,-3.12,2.32,9.48,0.92,0.29,-0.43,0.00,0.00,0.00,21.62,
3f82,460151,-,-,-,-,-,-,-,-,-,-3.47,-0.96,7.68,-0.48,-0.23,-0.09,-17.83,21.62,-46.46,-,-3.40,1.29,7.99,-0.47,0.19,-0.07,0.00,0.00,0.00,21.62,
3f82,460307,2000/1/0 4:7:41,20.82,950.87,14.70,207329,532.89,203.75,3938.75,810.00,-2.47,-0.10,9.10,-0.36,0.29,0.35,-19.07,14.63,-42.65,11.22,-2.20,0.22,9.59,-0.37,-0.32,0.43,0.00,0.00,0.00,21.62,
3f82,461258,-,-,-,-,-,-,-,-,-,-1.41,1.01,8.96,-0.01,0.49,-0.02,-16.44,12.55,-42.03,-,-1.24,-0.68,9.61,0.01,-0.52,0.05,0.00,0.00,0.00,21.38,
3f82,461413,2000/1/0 4:7:42,20.83,950.86,14.67,206576,532.89,225.00,3935.00,880.00,1.62,-1.91,9.97,-0.02,-0.22,1.00,-12.88,17.49,-46.99,10.75,1.59,0.55,10.08,-0.08,0.26,1.04,0.00,0.00,0.00,21.43,
3f82,462363,-,-,-,-,-,-,-,-,-,-0.49,-0.68,9.53,0.15,-0.52,0.50,-21.47,20.55,-46.32,-,-0.33,0.90,9.78,0.15,0.52,0.50,0.00,0.00,0.00,21.77,
3f82,462516,2000/1/0 4:7:43,20.84,950.87,14.64,206202,532.72,211.25,3935.00,830.00,0.01,-0.13,9.25,-0.01,-0.07,0.05,-22.58,23.28,-47.22,11.22,0.12,0.52,9.80,-0.01,0.04,0.09,0.00,0.00,0.00,21.72,
3f82,463464,-,-,-,-,-,-,-,-,-,0.26,-0.10,9.52,-0.08,-0.09,-0.02,-24.22,23.85,-45.67,-,0.40,0.64,10.00,-0.07,0.06,0.01,0.00,0.00,0.00,21.62,
3f82,463620,2000/1/0 4:7:44,20.85,950.88,14.62,206326,532.80,213.75,3936.25,840.00,1.78,-0.37,8.38,0.39,0.21,1.10,-21.78,26.62,-47.94,10.75,1.81,0.23,9.17,0.41,-0.15,1.15,0.00,0.00,0.00,21.29,
3f82,464566,-,-,-,-,-,-,-,-,-,1.57,-0.35,9.09,0.12,0.34,0.06,-21.13,31.37,-49.78,-,1.78,1.12,9.70,0.13,-0.37,0.11,0.00,0.00,0.00,21.77,
3f82,464717,2000/1/0 4:7:46,20.86,950.87,14.58,206326,532.72,212.50,3936.25,830.00,2.01,-0.75,9.65,0.17,0.41,0.54,-21.89,30.36,-49.08,10.75,2.24,1.28,9.97,0.16,-0.42,0.60,0.00,0.00,0.00,21.72,
3f82,465663,-,-,-,-,-,-,-,-,-,2.34,-0.27,8.73,-0.30,0.03,-0.30,-19.00,30.72,-49.56,-,2.47,0.90,9.35,-0.30,-0.07,-0.27,0.00,0.00,0.00,21.43,
3f82,465818,2000/1/0 4:7:47,20.88,950.87,14.57,209364,532.72,211.25,3935.00,830.00,2.50,-0.48,8.84,0.43,0.14,0.84,-17.44,24.44,-48.85,11.22,2.78,1.08,9.49,0.43,-0.11,0.89,0.00,0.00,0.00,21.72,
3f82,466764,-,-,-,-,-,-,-,-,-,2.44,-0.35,9.25,-0.14,0.41,0.20,-16.43,27.45,-49.40,-,2.78,0.92,9.78,-0.14,-0.44,0.27,0.00,0.00,0.00,21.77,
3f82,466917,2000/1/0 4:7:48,20.89,950.88,14.55,207329,532.72,223.75,3935.00,880.00,1.85,0.17,9.18,0.64,0.00,1.28,-11.36,17.28,-47.18,10.29,2.12,0.16,9.58,0.67,0.05,1.33,0.00,0.00,0.00,21.62,
3f82,467861,-,-,-,-,-,-,-,-,-,2.11,-0.17,9.40,0.54,0.19,0.82,-15.24,24.82,-48.79,-,2.31,0.83,9.83,0.55,-0.16,0.86,0.00,0.00,0.00,21.62,
3f82,468012,2000/1/0 4:7:49,20.90,950.88,14.54,205457,532.72,218.75,3938.75,860.00,1.74,-0.32,8.79,0.11,-0.26,0.04,-14.38,19.28,-47.75,10.75,2.16,0.90,9.50,0.12,0.25,0.06,0.00,0.00,0.00,21.72,
3f82,468958,-,-,-,-,-,-,-,-,-,0.68,0.42,9.75,0.24,-0.15,0.69,-18.09,20.83,-46.02,-,0.94,-0.15,10.23,0.26,0.17,0.72,0.00,0.00,0.00,21.77,
3f82,469109,2000/1/0 4:7:50,20.91,950.89,14.53,202772,532.63,212.50,3933.75,830.00,0.59,-0.22,9.53,-0.12,0.01,0.10,-21.88,23.22,-46.10,10.75,0.80,0.57,10.02,-0.12,-0.03,0.14,0.00,0.00,0.00,21.62,
3f82,470058,-,-,-,-,-,-,-,-,-,0.65,-0.06,9.55,0.01,0.01,0.22,-22.79,23.94,-45.69,-,0.88,0.54,10.09,0.02,-0.03,0.26,0.00,0.00,0.00,21.43,
3f82,470211,2000/1/0 4:7:51,20.93,950.89,14.51,203255,532.63,221.25,3931.25,870.00,0.60,-0.24,9.43,0.03,-0.01,0.05,-23.50,25.11,-47.14,10.29,0.89,0.64,9.96,0.03,-0.02,0.09,0.00,0.00,0.00,21.72,
3f82,471158,-,-,-,-,-,-,-,-,-,0.73,-0.21,9.55,-0.01,-0.04,0.04,-24.52,25.46,-47.28,-,0.96,0.61,10.05,-0.01,0.02,0.08,0.00,0.00,0.00,21.72,
3f82,471312,2000/1/0 4:7:52,20.93,950.89,14.52,203376,532.72,223.75,3936.25,880.00,0.56,-0.02,9.38,0.09,0.03,-0.08,-23.68,23.57,-46.68,10.75,0.82,0.44,9.89,0.10,-0.06,-0.05,0.00,0.00,0.00,21.77,
3f82,472260,-,-,-,-,-,-,-,-,-,0.72,-0.13,9.76,0.09,-0.01,-0.12,-23.21,23.56,-47.11,-,0.89,0.58,10.33,0.10,-0.03,-0.09,0.00,0.00,0.00,21.62,
3f82,472415,2000/1/0 4:7:53,20.94,950.90,14.51,202651,532.63,193.75,3940.00,770.00,0.45,-0.22,9.53,-0.05,-0.03,0.02,-22.79,23.08,-45.60,11.22,0.72,0.53,9.94,-0.05,0.00,0.04,0.00,0.00,0.00,21.77,
3f82,473363,-,-,-,-,-,-,-,-,-,0.55,-0.08,9.57,0.03,-0.03,-0.03,-23.36,23.17,-45.18,-,0.68,0.45,10.07,0.03,0.01,0.00,0.00,0.00,0.00,21.72,
3f82,473516,2000/1/0 4:7:54,20.94,950.90,14.51,203984,532.54,208.75,3938.75,790.00,0.78,-0.11,9.66,0.11,0.01,-0.04,-22.46,25.10,-46.10,10.75,0.96,0.54,10.25,0.12,-0.03,-0.00,0.00,0.00,0.00,21.62,
3f82,474465,-,-,-,-,-,-,-,-,-,0.63,-0.10,9.32,-0.01,-0.12,0.03,-23.33,24.79,-45.47,-,0.79,0.42,9.84,-0.01,0.10,0.05,0.00,0.00,0.00,21.62,
3f82,474618,2000/1/0 4:7:55,20.95,950.90,14.51,204963,532.54,200.00,3938.75,790.00,0.70,-0.01,9.47,0.08,0.01,-0.09,-24.88,24.95,-45.22,10.75,0.94,0.35,10.04,0.09,-0.03,-0.06,0.00,0.00,0.00,21.72,
3f82,475568,-,-,-,-,-,-,-,-,-,0.80,-0.09,9.37,0.02,-0.09,-0.03,-24.52,24.83,-46.01,-,0.96,0.55,10.00,0.03,0.07,-0.00,0.00,0.00,0.00,21.91,
3f82,475722,2000/1/0 4:7:57,20.96,950.90,14.50,204350,532.54,196.25,3938.75,770.00,0.75,0.14,9.70,-0.03,-0.10,0.15,-25.14,25.20,-45.95,11.22,0.92,0.16,10.19,-0.02,0.08,0.17,0.00,0.00,0.00,21.72,
3f82,476670,-,-,-,-,-,-,-,-,-,0.78,0.08,8.98,0.10,-0.04,-0.11,-25.68,25.78,-45.56,-,0.82,0.23,9.53,0.10,0.01,-0.09,0.00,0.00,0.00,21.72,
3f82,476821,2000/1/0 4:7:58,20.96,950.91,14.49,203255,532.45,200.00,3941.25,790.00,0.82,0.30,9.96,0.15,0.07,0.09,-22.80,23.22,-46.64,10.75,1.02,0.09,10.66,0.16,-0.09,0.13,0.00,0.00,0.00,21.72,
3f82,477768,-,-,-,-,-,-,-,-,-,0.59,0.09,9.04,0.02,-0.21,-0.01,-23.17,24.63,-45.92,-,0.75,0.27,9.59,0.03,0.18,0.01,0.00,0.00,0.00,21.77,
3f82,477919,2000/1/0 4:7:59,20.97,950.91,14.48,202892,532.45,197.50,3940.00,780.00,0.64,1.67,9.30,0.01,0.00,0.31,-22.73,16.08,-41.86,10.75,0.88,-1.14,10.11,0.01,-0.02,0.34,0.00,0.00,0.00,21.43,
3f82,478866,-,-,-,-,-,-,-,-,-,0.41,2.49,10.01,-0.04,-0.31,-0.12,-24.03,14.86,-40.91,-,0.76,-2.22,10.62,-0.03,0.28,-0.11,0.00,0.00,0.00,21.53,
3f82,479024,2000/1/0 4:8:0,20.98,950.91,14.46,201574,532.45,196.25,3938.75,770.00,-0.85,0.45,6.50,-0.02,-0.16,-1.07,-22.42,17.63,-42.98,10.75,0.62,-0.00,7.31,-0.05,0.06,-1.06,0.00,0.00,0.00,21.62,
3f82,479974,-,-,-,-,-,-,-,-,-,0.21,0.06,10.06,0.51,0.09,-0.19,-19.91,16.18,-43.35,-,0.39,-0.19,10.43,0.52,-0.12,-0.15,0.00,0.00,0.00,21.96,
3f82,480128,2000/1/0 4:8:1,20.99,950.92,14.47,197836,532.37,898.75,3888.75,3490.00,0.06,0.85,9.71,-0.16,0.56,1.12,-24.35,20.64,-43.06,10.75,0.26,-1.00,10.31,-0.16,-0.53,1.23,0.00,0.00,0.00,21.77,
3f82,481078,-,-,-,-,-,-,-,-,-,-0.25,1.26,8.84,-0.33,0.23,1.25,-27.35,24.26,-43.53,-,-0.01,-0.75,9.25,-0.35,-0.20,1.31,0.00,0.00,0.00,21.72,
3f82,481232,2000/1/0 4:8:2,20.99,950.91,14.48,196696,532.45,198.75,3936.25,780.00,0.21,1.93,8.86,-0.06,-0.08,0.56,-27.24,23.76,-43.74,10.75,0.59,-1.77,9.56,-0.06,0.08,0.62,0.00,0.00,0.00,21.58,
3f82,482180,-,-,-,-,-,-,-,-,-,0.92,2.94,9.84,-0.24,-0.20,1.06,-31.41,28.11,-43.16,-,1.21,-2.36,10.77,-0.24,0.24,1.08,0.00,0.00,0.00,21.62,
3f82,482334,2000/1/0 4:8:3,21.00,950.92,14.48,193682,532.37,221.25,3936.25,870.00,0.68,2.55,9.31,-0.29,-0.13,0.16,-27.14,31.34,-46.42,10.29,0.90,-2.20,10.13,-0.29,0.11,0.20,0.00,0.00,0.00,21.58,
3f82,483282,-,-,-,-,-,-,-,-,-,0.41,2.20,9.43,-0.24,-0.15,-0.05,-28.88,29.42,-45.09,-,0.68,-1.87,10.11,-0.24,0.12,-0.03,0.00,0.00,0.00,21.72,
3f82,483438,2000/1/0 4:8:4,21.01,950.91,14.51,192481,532.37,221.25,3932.50,870.00,0.68,2.21,9.58,0.04,-0.08,0.23,-30.24,32.91,-44.84,11.22,0.89,-1.84,10.18,0.04,0.07,0.26,0.00,0.00,0.00,21.96,
3f82,484384,-,-,-,-,-,-,-,-,-,0.45,2.20,9.04,-0.15,0.08,0.06,-30.99,32.91,-46.39,-,0.68,-1.62,9.80,-0.15,-0.11,0.10,0.00,0.00,0.00,21.81,
3f82,484537,2000/1/0 4:8:5,21.02,950.92,14.53,191724,532.37,233.75,3931.25,920.00,0.60,2.08,9.03,0.04,-0.10,-0.01,-30.14,31.20,-45.43,10.75,0.88,-1.79,9.80,0.06,0.07,0.01,0.00,0.00,0.00,21.81,
3f82,485483,-,-,-,-,-,-,-,-,-,0.73,2.23,9.18,-0.10,-0.02,0.10,-30.15,31.45,-44.34,-,0.93,-1.89,9.96,-0.09,-0.00,0.13,0.00,0.00,0.00,21.81,
3f82,485638,2000/1/0 4:8:7,21.03,950.92,14.55,186453,532.37,226.25,3933.75,900.00,0.65,2.43,9.35,0.01,-0.10,-0.10,-29.73,28.30,-44.69,10.75,0.97,-2.15,10.06,0.01,0.07,-0.08,0.00,0.00,0.00,21.43,
3f82,486586,-,-,-,-,-,-,-,-,-,0.69,2.19,9.19,0.08,-0.07,0.14,-30.06,29.49,-44.27,-,0.95,-1.85,9.93,0.09,0.05,0.17,0.00,0.00,0.00,21.72,
3f82,486737,2000/1/0 4:8:8,21.04,950.92,14.59,185037,532.37,223.75,3933.75,880.00,0.65,1.96,8.89,0.18,0.08,0.30,-30.33,32.93,-45.94,10.75,0.87,-1.65,9.64,0.19,-0.09,0.33,0.00,0.00,0.00,21.81,
3f82,487682,-,-,-,-,-,-,-,-,-,0.97,2.44,9.42,-0.03,-0.04,-0.12,-30.09,33.89,-46.14,-,1.17,-2.00,10.19,-0.03,0.01,-0.10,0.00,0.00,0.00,21.77,
3f82,487838,2000/1/0 4:8:9,21.04,950.91,14.63,183053,532.45,221.25,3933.75,870.00,0.63,2.23,8.72,-0.09,-0.25,-0.19,-28.79,26.19,-44.33,11.22,0.91,-2.13,9.58,-0.08,0.22,-0.17,0.00,0.00,0.00,21.96,
3f82,488787,-,-,-,-,-,-,-,-,-,0.14,3.12,10.04,-0.17,-0.22,0.15,-32.11,25.05,-41.71,-,0.42,-2.78,10.57,-0.17,0.19,0.18,0.00,0.00,0.00,21.81,
3f82,488942,2000/1/0 4:8:10,21.05,950.92,14.65,181495,532.28,222.50,3932.50,870.00,0.77,2.80,9.18,0.09,-0.01,0.02,-30.69,30.68,-45.25,10.75,1.03,-2.44,9.93,0.10,-0.01,0.05,0.00,0.00,0.00,21.43,
3f82,489890,-,-,-,-,-,-,-,-,-,0.45,2.43,8.89,0.05,-0.18,0.05,-31.61,31.75,-45.19,-,0.73,-2.12,9.53,0.05,0.16,0.07,0.00,0.00,0.00,21.72,
3f82,490041,2000/1/0 4:8:11,21.05,950.93,14.67,182271,532.19,226.25,3933.75,900.00,0.64,1.93,8.56,0.12,-0.03,0.57,-28.53,41.41,-47.28,11.22,0.90,-1.51,9.28,0.13,0.05,0.60,0.00,0.00,0.00,21.77,
3f82,490987,-,-,-,-,-,-,-,-,-,0.35,2.02,9.50,0.02,0.11,-0.01,-27.97,43.60,-49.39,-,0.68,-1.72,10.14,0.02,-0.15,0.03,0.00,0.00,0.00,21.72,
3f82,491140,2000/1/0 4:8:12,21.06,950.94,14.70,185843,532.28,222.50,3932.50,870.00,0.95,1.82,8.94,0.37,0.13,0.70,-19.60,54.00,-49.20,10.75,1.05,-1.42,9.61,0.38,-0.11,0.73,0.00,0.00,0.00,21.91,
3f82,492086,-,-,-,-,-,-,-,-,-,0.53,1.49,9.23,0.72,-0.07,0.27,-15.38,57.15,-49.37,-,0.77,-1.25,9.87,0.74,0.07,0.29,0.00,0.00,0.00,21.72,
3f82,492237,2000/1/0 4:8:13,21.07,950.93,14.71,186656,532.28,226.25,3933.75,920.00,0.20,-0.93,9.42,0.13,-0.16,1.05,-2.38,68.71,-44.26,10.75,0.43,1.24,9.82,0.13,0.19,1.09,0.00,0.00,0.00,21.81,
3f82,493182,-,-,-,-,-,-,-,-,-,0.50,-0.71,9.35,-0.16,-0.02,1.03,4.06,67.19,-44.24,-,0.65,1.07,9.82,-0.17,0.05,1.07,0.00,0.00,0.00,21.96,
3f82,493331,2000/1/0 4:8:14,21.08,950.93,14.72,193134,532.19,218.75,3933.75,860.00,0.86,-0.75,9.86,0.03,-0.22,0.18,11.01,64.88,-43.60,11.22,1.06,1.13,10.41,0.04,0.21,0.20,0.00,0.00,0.00,21.77,
3f82,494278,-,-,-,-,-,-,-,-,-,0.35,-0.25,8.99,-0.18,-0.23,0.38,10.48,63.27,-44.93,-,0.61,0.67,9.39,-0.18,0.22,0.40,0.00,0.00,0.00,21.77,
3f82,494430,2000/1/0 4:8:15,21.09,950.95,14.73,193353,532.19,202.50,3937.50,790.00,0.34,-0.42,10.09,0.11,-0.16,0.45,18.53,50.01,-43.48,11.22,0.56,0.59,10.37,0.12,0.16,0.49,0.00,0.00,0.00,21.91,
3f82,495377,-,-,-,-,-,-,-,-,-,0.60,-0.50,8.80,0.16,-0.09,-0.26,19.38,49.99,-42.39,-,0.82,1.08,9.59,0.18,0.06,-0.24,0.00,0.00,0.00,21.77,
3f82,495528,2000/1/0 4:8:16,21.09,950.94,14.73,192916,532.28,193.75,3936.25,770.00,1.00,-0.95,9.81,0.18,-0.28,0.16,17.54,58.56,-40.94,11.22,1.13,1.33,10.41,0.18,0.28,0.17,0.00,0.00,0.00,21.72,
3f82,496474,-,-,-,-,-,-,-,-,-,0.83,-0.93,9.94,0.01,-0.26,0.12,15.86,57.25,-42.65,-,0.91,1.54,10.37,0.01,0.24,0.13,0.00,0.00,0.00,21.81,
3f82,496624,2000/1/0 4:8:18,21.10,950.92,14.72,194012,532.45,196.25,3938.75,770.00,0.33,0.33,10.12,-0.04,0.11,0.44,14.05,60.39,-42.14,11.69,0.53,0.24,10.60,-0.01,-0.12,0.48,0.00,0.00,0.00,21.96,
3f82,497573,-,-,-,-,-,-,-,-,-,0.78,-0.80,9.31,-0.07,0.12,-0.18,16.35,58.97,-41.16,-,0.95,1.23,9.94,-0.06,-0.15,-0.14,0.00,0.00,0.00,21.96,
3f82,497727,2000/1/0 4:8:19,21.10,950.91,14.71,195793,532.45,202.50,3940.00,790.00,1.06,-1.59,9.76,-0.06,0.01,-0.17,13.97,59.72,-41.74,11.22,1.18,1.99,10.44,-0.07,-0.05,-0.13,0.00,0.00,0.00,21.62,
3f82,498678,-,-,-,-,-,-,-,-,-,0.38,-0.89,9.68,0.05,-0.15,0.52,14.50,57.76,-41.73,-,0.66,1.11,10.14,0.06,0.15,0.55,0.00,0.00,0.00,21.91,
3f82,498827,2000/1/0 4:8:20,21.11,950.91,14.70,196018,532.45,212.50,3936.25,830.00,0.68,-0.59,9.58,0.22,0.02,-0.19,15.65,58.13,-40.28,11.22,0.86,0.98,10.12,0.23,-0.06,-0.16,0.00,0.00,0.00,21.81,
3f82,499775,-,-,-,-,-,-,-,-,-,0.24,-0.73,9.19,-0.33,-0.08,-0.25,13.65,59.25,-41.99,-,0.44,1.22,9.54,-0.33,0.03,-0.22,0.00,0.00,0.00,21.72,
3f82,499929,2000/1/0 4:8:21,21.12,950.92,14.69,195345,532.37,201.25,3935.00,790.00,0.93,-0.46,9.04,-0.20,0.05,-0.54,15.58,57.41,-43.15,11.22,1.13,1.03,9.63,-0.20,-0.11,-0.52,0.00,0.00,0.00,21.81,
3f82,500879,-,-,-,-,-,-,-,-,-,0.57,-0.20,9.89,-0.13,-0.09,-0.47,13.30,58.16,-44.24,-,0.76,0.59,10.46,-0.12,0.03,-0.44,0.00,0.00,0.00,21.91,
3f82,501034,2000/1/0 4:8:22,21.12,950.92,14.67,198411,532.28,198.75,3936.25,780.00,0.94,-0.06,9.78,-0.01,-0.05,0.48,15.80,55.67,-44.53,11.22,1.04,0.48,10.37,-0.00,0.05,0.52,0.00,0.00,0.00,21.81,
3f82,501982,-,-,-,-,-,-,-,-,-,0.83,0.01,9.59,0.21,-0.34,0.15,15.04,54.93,-45.09,-,1.00,0.31,10.23,0.21,0.33,0.16,0.00,0.00,0.00,21.81,
3f82,502132,2000/1/0 4:8:23,21.13,950.94,14.66,199454,532.28,210.00,3935.00,830.00,0.40,-0.95,9.29,-0.05,-0.24,-0.69,17.06,51.58,-44.62,10.75,0.54,1.46,9.58,-0.04,0.16,-0.69,0.00,0.00,0.00,21.77,
3f82,503082,-,-,-,-,-,-,-,-,-,0.39,-0.81,9.63,0.14,0.15,-0.57,14.15,54.93,-45.03,-,0.66,1.15,10.13,0.16,-0.22,-0.53,0.00,0.00,0.00,21.72,
3f82,503235,2000/1/0 4:8:24,21.14,950.93,14.63,201693,532.28,205.00,3936.25,810.00,0.49,-2.23,8.79,-0.53,-0.14,0.59,17.79,61.03,-41.16,11.22,0.67,2.60,9.25,-0.54,0.15,0.63,0.00,0.00,0.00,21.91,
3f82,504182,-,-,-,-,-,-,-,-,-,0.88,-1.77,10.28,-0.05,-0.07,0.47,20.36,54.72,-42.02,-,1.03,2.35,10.73,-0.05,0.08,0.50,0.00,0.00,0.00,21.91,
3f82,504336,2000/1/0 4:8:25,21.15,950.93,14.60,203497,532.37,208.75,3936.25,820.00,0.45,-1.81,8.82,-0.12,-0.06,0.04,20.59,50.31,-42.33,10.75,0.48,2.25,9.07,-0.11,0.03,0.08,0.00,0.00,0.00,21.81,
3f82,505283,-,-,-,-,-,-,-,-,-,0.65,-1.60,9.43,0.09,0.00,-0.19,21.13,50.75,-42.30,-,0.79,2.00,9.89,0.11,-0.05,-0.16,0.00,0.00,0.00,21.77,
3f82,505434,2000/1/0 4:8:26,21.15,950.92,14.57,204228,532.37,223.75,3933.75,880.00,0.43,-1.56,9.91,0.23,-0.02,0.30,19.75,42.68,-45.28,10.75,0.67,2.23,10.31,0.24,0.01,0.32,0.00,0.00,0.00,22.15,
3f82,506380,-,-,-,-,-,-,-,-,-,0.61,-1.64,9.90,-0.07,-0.02,-0.04,19.50,41.92,-45.15,-,0.91,2.05,10.48,-0.06,-0.01,-0.01,0.00,0.00,0.00,22.05,
3f82,506537,2000/1/0 4:8:27,21.16,950.91,14.52,201693,532.45,222.50,3933.75,870.00,0.57,-1.09,8.76,-0.24,0.25,-0.39,20.81,42.18,-42.94,11.22,0.75,1.46,9.26,-0.24,-0.31,-0.34,0.00,0.00,0.00,21.77,
3f82,507486,-,-,-,-,-,-,-,-,-,0.23,-1.47,10.22,-0.06,-0.16,0.21,20.72,43.25,-43.25,-,0.42,1.75,10.64,-0.04,0.14,0.25,0.00,0.00,0.00,21.81,
3f82,507639,2000/1/0 4:8:29,21.17,950.90,14.51,197492,532.54,232.50,3932.50,910.00,0.26,-0.64,9.88,-0.06,-0.18,0.28,22.00,40.18,-43.64,11.22,0.44,1.04,10.35,-0.05,0.18,0.30,0.00,0.00,0.00,21.91,
3f82,508588,-,-,-,-,-,-,-,-,-,0.42,-0.97,10.09,0.01,-0.08,-0.17,20.65,39.58,-44.53,-,0.62,0.91,10.11,0.00,0.05,-0.13,0.00,0.00,0.00,21.81,
3f82,508741,2000/1/0 4:8:30,21.18,950.90,14.50,195457,532.63,220.00,3931.25,870.00,0.68,-0.42,9.71,-0.01,0.05,-0.05,21.00,39.87,-44.31,10.75,0.82,0.65,10.32,0.01,-0.08,-0.01,0.00,0.00,0.00,21.81,
3f82,509691,-,-,-,-,-,-,-,-,-,0.27,-0.29,9.43,-0.07,-0.13,-0.07,21.09,39.49,-44.34,-,0.47,0.65,10.01,-0.07,0.09,-0.05,0.00,0.00,0.00,22.10,
3f82,509846,2000/1/0 4:8:31,21.19,950.88,14.49,193244,532.72,227.50,3932.50,900.00,0.03,-0.39,9.63,0.02,0.01,0.02,19.47,38.59,-44.99,11.22,0.23,0.91,10.15,0.03,-0.04,0.05,0.00,0.00,0.00,21.91,
3f82,510792,-,-,-,-,-,-,-,-,-,0.09,-0.48,9.53,-0.05,0.03,0.00,20.11,38.10,-44.88,-,0.43,0.83,10.13,-0.05,-0.06,0.04,0.00,0.00,0.00,21.77,
3f82,510945,2000/1/0 4:8:32,21.20,950.88,14.50,186249,532.63,221.25,3928.75,870.00,0.12,-0.24,9.69,-0.00,-0.01,-0.05,19.96,37.34,-44.72,11.22,0.30,0.62,10.26,0.00,-0.01,-0.02,0.00,0.00,0.00,22.10,
3f82,511895,-,-,-,-,-,-,-,-,-,0.24,-0.30,9.51,0.01,-0.02,-0.06,20.07,37.27,-44.53,-,0.40,0.71,9.98,0.02,-0.01,-0.03,0.00,0.00,0.00,21.91,
3f82,512048,2000/1/0 4:8:33,21.21,950.89,14.51,185037,532.72,235.00,3932.50,920.00,0.17,-0.27,9.53,-0.00,-0.04,-0.04,20.26,38.10,-45.22,11.22,0.38,0.63,10.00,0.00,0.00,-0.01,0.00,0.00,0.00,21.72,
3f82,512998,-,-,-,-,-,-,-,-,-,0.14,-0.27,9.55,0.01,-0.01,-0.04,20.36,37.58,-45.28,-,0.32,0.68,10.14,0.03,-0.02,-0.00,0.00,0.00,0.00,21.96,
3f82,513152,2000/1/0 4:8:34,21.21,950.89,14.55,185037,532.63,235.00,3932.50,920.00,0.22,-0.28,9.66,0.02,-0.01,-0.03,20.75,37.45,-44.08,11.22,0.37,0.66,10.15,0.03,-0.01,-0.00,0.00,0.00,0.00,21.96,
3f82,514101,-,-,-,-,-,-,-,-,-,0.28,-0.37,9.49,0.01,-0.05,-0.02,20.32,37.59,-45.09,-,0.48,0.75,10.09,0.01,0.03,0.01,0.00,0.00,0.00,22.10,
3f82,514253,2000/1/0 4:8:35,21.22,950.89,14.56,183053,532.63,225.00,3933.75,880.00,0.24,-0.11,9.59,0.03,-0.00,-0.03,20.29,36.74,-43.67,11.22,0.52,0.56,10.25,0.03,-0.02,0.00,0.00,0.00,0.00,21.81,
3f82,515201,-,-,-,-,-,-,-,-,-,0.27,-0.18,9.58,0.03,-0.04,-0.04,20.46,37.52,-43.96,-,0.43,0.56,10.09,0.04,0.00,-0.01,0.00,0.00,0.00,22.10,
3f82,515353,2000/1/0 4:8:36,21.23,950.89,14.58,183842,532.63,230.00,3933.75,910.00,0.25,-0.14,9.55,0.01,-0.04,-0.03,20.72,37.64,-44.71,11.22,0.50,0.63,10.14,0.01,0.01,-0.01,0.00,0.00,0.00,22.05,
3f82,516302,-,-,-,-,-,-,-,-,-,0.37,-0.17,9.51,0.01,-0.03,-0.02,21.22,37.02,-44.56,-,0.56,0.68,10.07,0.02,0.00,0.00,0.00,0.00,0.00,21.91,
3f82,516454,2000/1/0 4:8:37,21.24,950.89,14.61,181689,532.63,1105.00,3760.00,4160.00,0.34,-0.09,9.60,-0.00,-0.03,-0.03,20.93,36.88,-43.17,10.29,0.47,0.43,10.13,0.00,0.00,-0.01,0.00,0.00,0.00,21.91,
3f82,517405,-,-,-,-,-,-,-,-,-,0.42,-0.04,9.53,0.02,-0.03,-0.03,20.58,36.74,-44.01,-,0.57,0.49,10.09,0.02,-0.00,-0.00,0.00,0.00,0.00,22.05,
3f82,517559,2000/1/0 4:8:38,21.25,950.88,14.62,182271,532.72,216.25,3935.00,840.00,0.45,-0.17,9.61,0.04,-0.04,-0.01,20.72,36.86,-43.67,11.22,0.53,0.59,10.13,0.05,0.01,0.02,0.00,0.00,0.00,22.05,
3f82,518506,-,-,-,-,-,-,-,-,-,0.45,-0.17,9.52,0.01,-0.02,-0.03,21.38,36.83,-43.77,-,0.60,0.65,10.01,0.01,-0.01,-0.01,0.00,0.00,0.00,21.81,
3f82,518659,2000/1/0 4:8:40,21.26,950.88,14.65,181303,532.72,220.00,3936.25,810.00,0.62,-0.09,9.62,0.01,-0.06,-0.02,21.95,37.33,-43.03,11.22,0.77,0.52,10.15,0.02,0.03,0.01,0.00,0.00,0.00,22.15,
3f82,519607,-,-,-,-,-,-,-,-,-,0.71,-0.22,9.36,0.04,-0.03,-0.03,21.38,37.53,-43.20,-,0.90,0.70,9.94,0.04,-0.01,0.00,0.00,0.00,0.00,22.15,
3f82,519759,2000/1/0 4:8:41,21.27,950.89,14.66,181303,532.72,211.25,3933.75,830.00,0.51,-0.07,9.64,0.01,-0.03,-0.04,21.29,38.04,-43.22,11.22,0.71,0.63,10.17,0.02,0.00,-0.02,0.00,0.00,0.00,22.10,
3f82,520707,-,-,-,-,-,-,-,-,-,0.72,-0.14,9.47,0.00,-0.02,0.01,21.59,37.36,-43.28,-,0.86,0.63,10.01,0.00,-0.01,0.04,0.00,0.00,0.00,22.10,
3f82,520858,2000/1/0 4:8:42,21.28,950.88,14.68,182857,532.72,210.00,3936.25,830.00,0.44,0.45,10.07,-0.11,-0.26,-0.01,19.99,36.04,-42.98,11.22,0.57,-0.34,10.68,-0.10,0.24,-0.01,0.00,0.00,0.00,21.91,
3f82,521810,-,-,-,-,-,-,-,-,-,-0.16,-0.01,9.63,0.19,0.02,-0.04,19.76,36.52,-44.10,-,-0.06,0.24,10.43,0.20,-0.05,-0.01,0.00,0.00,0.00,21.77,
3f82,521965,2000/1/0 4:8:43,21.29,950.87,14.70,180918,532.72,208.75,3936.25,820.00,0.17,-0.42,9.45,-0.08,-0.08,-0.89,19.76,48.93,-43.69,11.22,0.42,0.87,9.92,-0.07,-0.00,-0.86,0.00,0.00,0.00,22.15,
3f82,522916,-,-,-,-,-,-,-,-,-,0.42,-1.00,9.69,0.01,0.03,-0.62,18.06,53.32,-42.40,-,0.61,1.24,10.21,0.02,-0.09,-0.59,0.00,0.00,0.00,22.05,
3f82,523069,2000/1/0 4:8:44,21.30,950.89,14.71,179964,532.54,207.50,3936.25,820.00,0.06,0.22,9.55,0.12,-0.01,0.86,19.83,43.39,-43.17,11.22,0.31,0.10,10.07,0.13,0.04,0.90,0.00,0.00,0.00,22.10,
3f82,524014,-,-,-,-,-,-,-,-,-,-0.19,-0.05,8.69,0.19,-0.25,0.80,20.20,38.79,-44.27,-,-0.06,0.56,9.18,0.20,0.27,0.81,0.00,0.00,0.00,21.77,
3f82,524166,2000/1/0 4:8:45,21.31,950.90,14.74,181495,532.45,201.25,3936.25,790.00,0.72,0.18,10.22,-0.15,0.12,-0.82,18.94,37.78,-45.02,11.22,0.89,0.42,10.89,-0.13,-0.19,-0.80,0.00,0.00,0.00,22.15,
3f82,525117,-,-,-,-,-,-,-,-,-,0.47,-3.32,9.04,0.20,0.31,-1.27,18.78,46.70,-45.24,-,0.75,3.81,9.72,0.22,-0.41,-1.24,0.00,0.00,0.00,22.10,
3f82,525267,2000/1/0 4:8:46,21.32,950.91,14.74,180918,532.45,201.25,3936.25,790.00,0.08,-2.16,9.88,0.07,-0.01,0.10,17.93,59.81,-40.37,11.22,0.23,2.53,10.29,0.08,-0.02,0.14,0.00,0.00,0.00,22.10,
3f82,526214,-,-,-,-,-,-,-,-,-,0.03,-2.63,9.06,-0.06,-0.18,0.28,18.46,58.42,-41.83,-,0.26,2.84,9.53,-0.07,0.17,0.31,0.00,0.00,0.00,22.25,
3f82,526365,2000/1/0 4:8:47,21.33,950.91,14.76,181882,532.45,211.25,3935.00,830.00,0.48,-2.42,9.75,0.29,0.11,0.23,18.72,40.41,-45.41,11.22,0.59,2.93,10.19,0.30,-0.11,0.27,0.00,0.00,0.00,22.25,
3f82,527311,-,-,-,-,-,-,-,-,-,0.03,-2.90,9.71,0.09,-0.19,-0.05,18.39,41.19,-45.53,-,0.15,3.36,9.98,0.10,0.16,-0.03,0.00,0.00,0.00,21.96,
3f82,527462,2000/1/0 4:8:48,21.35,950.91,14.76,182661,532.45,228.75,3932.50,900.00,1.18,-3.28,9.40,0.92,-0.21,1.25,22.65,43.73,-41.00,11.22,1.45,3.62,9.74,0.95,0.29,1.28,0.00,0.00,0.00,22.15,
3f82,528407,-,-,-,-,-,-,-,-,-,3.17,-5.30,8.00,1.29,0.07,0.96,24.50,41.96,-40.92,-,3.40,6.46,8.62,1.33,-0.02,0.97,0.00,0.00,0.00,22.05,
3f82,528557,2000/1/0 4:8:49,21.36,950.90,14.77,182271,532.54,223.75,3927.50,880.00,0.73,-10.39,0.11,0.08,-0.15,0.02,18.06,75.64,-20.96,10.75,0.65,9.87,-0.34,0.09,0.13,0.05,0.00,0.00,0.00,22.10,
3f82,529504,-,-,-,-,-,-,-,-,-,1.31,-9.12,0.43,0.01,0.21,-0.19,18.30,75.84,-20.05,-,1.24,9.13,0.41,0.03,-0.25,-0.15,0.00,0.00,0.00,21.91,
3f82,529656,2000/1/0 4:8:51,21.37,950.90,14.77,181495,532.54,220.00,3932.50,870.00,0.60,-10.19,0.70,0.18,-0.26,-0.42,19.44,75.87,-15.87,11.22,0.71,10.16,0.46,0.19,0.22,-0.42,0.00,0.00,0.00,22.15,
3f82,530605,-,-,-,-,-,-,-,-,-,0.60,-10.18,-0.78,0.04,-0.07,-0.09,17.64,77.77,-13.52,-,0.53,9.99,-1.07,0.05,0.03,-0.06,0.00,0.00,0.00,22.25,
3f82,530760,2000/1/0 4:8:52,21.37,950.91,14.77,180154,532.45,230.00,3927.50,910.00,1.67,-8.92,0.11,-0.21,0.10,-0.59,21.38,75.17,-8.11,11.22,1.47,9.09,0.01,-0.18,-0.16,-0.57,0.00,0.00,0.00,21.81,
3f82,531708,-,-,-,-,-,-,-,-,-,0.67,-10.17,0.36,-0.03,0.05,0.06,17.89,77.61,-9.46,-,0.77,9.82,0.21,-0.02,-0.07,0.11,0.00,0.00,0.00,22.05,
3f82,531860,2000/1/0 4:8:53,21.38,950.90,14.77,179397,532.63,230.00,3930.00,910.00,0.66,-9.56,-0.81,0.06,0.01,-0.04,19.32,76.76,-7.73,11.22,0.65,9.59,-1.29,0.06,-0.05,-0.02,0.00,0.00,0.00,22.10,
3f82,532809,-,-,-,-,-,-,-,-,-,0.31,-9.93,-0.57,0.01,-0.10,0.04,18.58,77.19,-8.02,-,0.29,9.66,-0.99,0.01,0.08,0.06,0.00,0.00,0.00,22.10,
3f82,532959,2000/1/0 4:8:54,21.39,950.89,14.78,177346,532.63,223.75,3928.75,880.00,0.04,-10.08,-0.46,-0.01,-0.04,-0.07,18.40,77.81,-8.42,11.22,0.09,9.77,-0.82,-0.00,0.01,-0.04,0.00,0.00,0.00,22.29,
3f82,533910,-,-,-,-,-,-,-,-,-,0.25,-10.05,-0.37,0.01,0.05,0.04,18.15,77.51,-8.40,-,0.24,9.68,-0.77,0.01,-0.08,0.08,0.00,0.00,0.00,22.10,
3f82,534062,2000/1/0 4:8:55,21.40,950.89,14.79,178086,532.63,237.50,3932.50,930.00,2.94,-7.41,2.86,-0.08,-0.10,0.31,21.25,74.79,-10.35,11.22,-0.14,5.61,2.93,-0.05,0.09,0.31,0.00,0.00,0.00,22.15,
3f82,535011,-,-,-,-,-,-,-,-,-,0.53,-10.41,-0.36,-0.09,-0.04,-0.66,20.56,76.31,-10.44,-,0.85,9.92,-0.36,-0.07,-0.02,-0.64,0.00,0.00,0.00,22.25,
3f82,535168,2000/1/0 4:8:56,21.40,950.89,14.79,176978,532.54,221.25,3928.75,870.00,-0.88,-9.31,0.30,-0.22,0.66,-0.26,17.64,77.23,-16.27,11.69,-0.67,8.56,0.47,-0.20,-0.72,-0.15,0.00,0.00,0.00,22.15,
3f82,536120,-,-,-,-,-,-,-,-,-,-0.67,-9.62,2.00,0.09,0.18,-0.27,21.03,76.02,-13.86,-,-0.52,8.98,1.05,0.03,-0.22,-0.22,0.00,0.00,0.00,22.15,
3f82,536274,2000/1/0 4:8:57,21.41,950.89,14.81,175884,532.72,228.75,3933.75,900.00,0.02,-8.47,0.86,0.02,0.21,-0.18,16.73,79.95,-3.03,11.22,-0.25,8.48,0.80,0.02,-0.25,-0.15,0.00,0.00,0.00,22.15,
3f82,537222,-,-,-,-,-,-,-,-,-,-0.96,-10.80,0.45,0.17,0.17,-0.06,12.98,81.57,-0.23,-,-1.04,10.30,0.72,0.19,-0.19,0.00,0.00,0.00,0.00,22.25,
3f82,537376,2000/1/0 4:8:58,21.42,950.88,14.81,175522,532.72,226.25,3931.25,880.00,-0.80,-8.88,0.80,-0.40,0.22,0.66,15.80,79.86,-3.36,11.22,-0.78,7.94,0.52,-0.40,-0.21,0.74,0.00,0.00,0.00,22.15,
3f82,538324,-,-,-,-,-,-,-,-,-,1.64,-9.75,1.24,0.29,-0.13,-0.60,17.36,79.41,-1.70,-,1.55,9.36,1.04,0.29,0.10,-0.57,0.00,0.00,0.00,22.15,
3f82,538475,2000/1/0 4:8:59,21.43,950.88,14.83,175342,532.63,210.00,3936.25,830.00,-0.06,-10.04,0.10,0.07,0.04,0.12,16.54,78.84,3.04,11.22,0.04,9.60,-0.23,0.07,-0.07,0.15,0.00,0.00,0.00,22.25,
3f82,539422,-,-,-,-,-,-,-,-,-,0.17,-10.21,-0.19,0.08,-0.02,0.12,16.65,78.73,3.55,-,0.25,10.03,-0.52,0.09,0.00,0.15,0.00,0.00,0.00,22.10,
3f82,539574,2000/1/0 4:9:0,21.44,950.88,14.83,174982,532.63,208.75,3935.00,820.00,0.32,-10.83,0.65,0.05,-0.02,0.04,16.75,77.65,1.81,11.22,0.40,10.34,0.40,0.05,0.00,0.09,0.00,0.00,0.00,22.25,
3f82,540518,-,-,-,-,-,-,-,-,-,1.13,-9.50,0.39,-0.05,-0.16,0.28,20.64,74.64,2.60,-,1.10,9.29,0.06,-0.04,0.15,0.31,0.00,0.00,0.00,22.15,
3f82,540668,2000/1/0 4:9:2,21.45,950.89,14.83,174268,532.72,216.25,3935.00,840.00,-3.52,-8.48,4.13,-0.08,-0.08,-0.65,0.54,85.91,-13.90,11.22,-3.68,8.18,3.76,-0.07,0.01,-0.62,0.00,0.00,0.00,22.15,
3f82,541617,-,-,-,-,-,-,-,-,-,-3.23,-8.49,3.91,0.30,-0.03,0.35,0.03,85.57,-13.27,-,-3.27,8.44,3.73,0.31,0.03,0.38,0.00,0.00,0.00,22.34,
3f82,541768,2000/1/0 4:9:3,21.46,950.87,14.82,172158,532.80,217.50,3932.50,860.00,5.14,-7.34,2.28,-0.32,-0.16,2.03,36.61,56.26,-7.34,11.22,5.32,7.33,2.17,-0.33,0.25,2.07,0.00,0.00,0.00,22.15,
3f82,542713,-,-,-,-,-,-,-,-,-,8.07,-4.75,2.56,-0.26,-0.09,1.24,40.54,39.29,-6.78,-,8.27,4.67,2.88,-0.27,0.14,1.29,0.00,0.00,0.00,21.96,
3f82,542864,2000/1/0 4:9:4,21.47,950.87,14.83,171985,532.80,213.75,3935.00,840.00,5.00,-5.94,3.40,0.48,0.04,-2.22,37.94,48.87,-11.44,11.22,5.42,5.61,3.36,0.51,-0.20,-2.19,0.00,0.00,0.00,22.15,
3f82,543810,-,-,-,-,-,-,-,-,-,3.89,-8.69,2.37,0.54,0.03,-1.55,31.34,64.07,-8.35,-,3.96,8.91,2.14,0.57,-0.14,-1.54,0.00,0.00,0.00,22.05,
3f82,543962,2000/1/0 4:9:5,21.48,950.86,14.86,171466,532.80,221.25,3936.25,870.00,-1.42,-9.88,1.53,0.01,-0.10,-0.09,10.51,83.22,-5.07,11.22,-1.55,9.67,1.31,0.01,0.07,-0.07,0.00,0.00,0.00,22.15,
3f82,544909,-,-,-,-,-,-,-,-,-,-1.44,-9.20,1.80,-0.06,-0.09,0.09,10.39,83.02,-6.11,-,-1.46,9.20,1.49,-0.06,0.07,0.12,0.00,0.00,0.00,22.15,
3f82,545062,2000/1/0 4:9:6,21.49,950.87,14.88,171812,532.80,213.75,3932.50,840.00,-0.11,-9.32,2.02,0.15,-0.01,-0.02,14.94,80.53,-7.97,11.22,-0.22,9.14,1.92,0.15,-0.01,0.00,0.00,0.00,0.00,22.29,
3f82,546009,-,-,-,-,-,-,-,-,-,-0.45,-9.94,1.64,0.31,0.00,0.03,14.83,80.85,-7.15,-,-0.55,9.73,1.36,0.32,-0.02,0.06,0.00,0.00,0.00,22.10,
3f82,546160,2000/1/0 4:9:7,21.49,950.87,14.89,168421,532.72,205.00,3933.75,810.00,-0.06,-9.63,1.30,-0.09,-0.03,-0.06,15.62,79.47,-4.24,11.22,-0.18,9.43,1.10,-0.09,0.00,-0.03,0.00,0.00,0.00,22.15,
3f82,547110,-,-,-,-,-,-,-,-,-,-0.23,-9.76,1.44,-0.12,-0.03,-0.01,15.45,80.02,-5.23,-,-0.23,9.66,1.24,-0.11,0.00,0.02,0.00,0.00,0.00,22.05,
3f82,547263,2000/1/0 4:9:8,21.50,950.87,14.91,167429,532.72,211.25,3931.25,830.00,-1.01,-12.73,-0.09,0.16,0.23,-0.68,18.46,76.29,2.63,11.22,-1.68,9.24,-1.38,0.10,-0.28,-0.60,0.00,0.00,0.00,22.49,
3f82,548213,-,-,-,-,-,-,-,-,-,0.72,-10.49,0.01,-0.19,-0.08,0.35,17.41,77.27,1.56,-,0.46,10.27,-0.28,-0.20,0.08,0.39,0.00,0.00,0.00,22.15,
3f82,548366,2000/1/0 4:9:9,21.51,950.87,14.92,167923,532.72,211.25,3930.00,830.00,1.22,-8.89,4.28,-1.73,-0.44,0.96,23.09,72.65,-16.75,11.22,1.56,8.58,5.00,-1.78,0.48,1.04,0.00,0.00,0.00,22.44,
3f82,549312,-,-,-,-,-,-,-,-,-,2.58,-5.08,8.02,-0.89,-0.19,0.75,29.48,58.81,-30.20,-,2.72,5.44,7.93,-0.90,0.20,0.80,0.00,0.00,0.00,22.44,
3f82,549462,2000/1/0 4:9:10,21.52,950.87,14.94,167594,532.72,205.00,3932.50,810.00,2.84,-3.98,8.66,-0.39,-0.04,0.30,28.37,49.87,-35.11,11.22,2.99,4.43,9.01,-0.40,0.03,0.34,0.00,0.00,0.00,22.44,
3f82,550409,-,-,-,-,-,-,-,-,-,2.87,-0.65,9.34,-0.03,0.14,0.11,31.31,43.41,-33.59,-,3.10,0.88,9.62,-0.03,-0.17,0.16,0.00,0.00,0.00,22.15,
3f82,550559,2000/1/0 4:9:11,21.53,950.88,14.96,164842,532.72,222.50,3931.25,870.00,1.51,-8.99,3.02,0.37,0.20,0.19,19.56,77.04,-5.63,11.22,1.77,9.00,2.93,0.40,-0.22,0.24,0.00,0.00,0.00,22.29,
3f82,551504,-,-,-,-,-,-,-,-,-,0.50,-10.03,2.30,0.49,0.34,-0.48,17.25,77.89,0.03,-,0.60,9.76,2.07,0.51,-0.39,-0.43,0.00,0.00,0.00,22.49,
3f82,551655,2000/1/0 4:9:13,21.54,950.89,14.97,164207,532.63,231.25,3932.50,910.00,0.45,-9.48,1.52,-0.06,0.09,-0.11,13.49,79.42,3.01,11.22,0.41,9.50,1.31,-0.05,-0.13,-0.07,0.00,0.00,0.00,22.15,
3f82,552602,-,-,-,-,-,-,-,-,-,0.04,-10.09,1.08,0.10,0.05,-0.16,11.97,80.06,3.98,-,0.04,9.85,0.95,0.13,-0.09,-0.13,0.00,0.00,0.00,22.15,
3f82,552753,2000/1/0 4:9:14,21.55,950.88,14.98,164049,532.63,227.50,3932.50,900.00,-0.54,-10.12,-0.60,0.22,0.24,0.09,5.76,78.41,15.83,11.22,-0.59,9.92,-0.91,0.23,-0.26,0.14,0.00,0.00,0.00,22.34,
3f82,553701,-,-,-,-,-,-,-,-,-,0.19,-9.92,-0.29,0.02,0.01,0.12,6.50,77.32,15.77,-,0.17,9.74,-0.73,0.02,-0.03,0.15,0.00,0.00,0.00,22.34,
3f82,553851,2000/1/0 4:9:15,21.55,950.88,14.99,164683,532.63,227.50,3932.50,900.00,-0.08,-10.37,-0.29,0.06,0.31,-0.16,-4.52,78.65,17.98,11.22,-0.19,9.86,-0.65,0.08,-0.35,-0.10,0.00,0.00,0.00,22.34,
3f82,554803,-,-,-,-,-,-,-,-,-,-0.20,-9.76,-0.34,-0.07,0.28,0.05,-6.53,79.61,17.92,-,-0.18,9.62,-0.46,-0.06,-0.31,0.10,0.00,0.00,0.00,22.25,
3f82,554958,2000/1/0 4:9:16,21.56,950.88,15.02,162025,532.63,231.25,3928.75,910.00,-0.63,-9.76,-0.70,0.01,0.19,0.07,-11.68,77.78,19.69,11.22,-0.72,9.74,-0.97,0.02,-0.21,0.11,0.00,0.00,0.00,22.34,
3f82,555908,-,-,-,-,-,-,-,-,-,-0.04,-9.85,-0.61,-0.11,-0.25,0.06,-9.95,79.09,18.39,-,-0.21,9.49,-0.99,-0.11,0.23,0.07,0.00,0.00,0.00,22.29,
3f82,556063,2000/1/0 4:9:17,21.57,950.89,15.04,162488,532.63,236.25,3931.25,870.00,-0.22,-10.44,0.41,-0.07,-0.08,0.07,-5.48,81.51,15.02,11.22,-0.24,9.89,0.07,-0.07,0.06,0.11,0.00,0.00,0.00,22.25,
3f82,557012,-,-,-,-,-,-,-,-,-,0.30,-9.88,0.56,-0.09,-0.30,0.04,-4.19,81.82,14.02,-,0.42,9.66,0.31,-0.10,0.28,0.06,0.00,0.00,0.00,22.34,
3f82,557163,2000/1/0 4:9:18,21.57,950.89,15.07,162798,532.63,226.25,3931.25,880.00,0.68,-9.84,0.98,0.23,-0.37,-0.04,1.33,81.20,13.86,11.22,0.60,9.68,0.72,0.24,0.35,-0.05,0.00,0.00,0.00,22.05,
3f82,558109,-,-,-,-,-,-,-,-,-,0.81,-9.79,0.34,0.15,-0.59,-0.13,3.35,80.46,13.99,-,0.87,9.79,0.45,0.17,0.57,-0.14,0.00,0.00,0.00,22.10,
3f82,558257,2000/1/0 4:9:19,21.58,950.89,15.09,165803,532.54,223.75,3932.50,880.00,0.28,-10.11,0.01,-0.07,-0.26,0.13,13.39,79.26,3.29,11.69,0.42,10.51,0.10,-0.06,0.25,0.13,0.00,0.00,0.00,22.15,
3f82,559205,-,-,-,-,-,-,-,-,-,-0.04,-8.97,0.32,-0.05,0.52,-0.35,13.21,79.92,3.95,-,1.06,9.45,1.60,-0.02,-0.59,-0.29,0.00,0.00,0.00,21.91,
3f82,559357,2000/1/0 4:9:20,21.59,950.90,15.11,168255,532.54,220.00,3931.25,870.00,0.58,-10.34,0.39,0.32,0.54,-0.27,13.97,78.94,6.80,11.22,0.48,10.01,-0.04,0.33,-0.58,-0.22,0.00,0.00,0.00,22.29,
3f82,560305,-,-,-,-,-,-,-,-,-,0.07,-9.86,0.29,0.13,0.23,-0.10,11.78,78.31,11.11,-,0.04,9.63,0.13,0.14,-0.25,-0.07,0.00,0.00,0.00,22.44,
3f82,560456,2000/1/0 4:9:21,21.60,950.89,15.12,167429,532.54,221.25,3928.75,870.00,-0.26,-9.94,-0.06,0.06,0.09,-0.21,11.01,78.19,11.53,11.22,-0.21,9.69,-0.34,0.06,-0.13,-0.15,0.00,0.00,0.00,22.25,
3f82,561407,-,-,-,-,-,-,-,-,-,1.88,-9.70,2.33,-0.25,-0.42,-0.06,12.47,79.20,11.14,-,1.24,10.03,1.47,-0.25,0.39,-0.05,0.00,0.00,0.00,22.44,
3f82,561561,2000/1/0 4:9:22,21.61,950.90,15.13,165803,532.54,217.50,3933.75,860.00,-0.36,-9.08,1.76,-0.20,-0.12,-0.22,13.72,82.29,-4.49,11.22,-0.30,9.05,1.69,-0.19,0.09,-0.19,0.00,0.00,0.00,22.10,
3f82,562512,-,-,-,-,-,-,-,-,-,1.18,-11.08,3.15,0.43,-0.33,0.35,13.74,81.85,-5.09,-,1.63,10.89,1.55,0.39,0.34,0.34,0.00,0.00,0.00,22.25,
3f82,562662,2000/1/0 4:9:24,21.61,950.89,15.13,168255,532.63,238.75,3762.50,900.00,-0.84,-8.56,2.95,1.42,0.13,0.16,14.89,81.60,-11.55,11.69,-0.44,8.67,3.11,1.49,-0.13,0.20,0.00,0.00,0.00,22.34,
3f82,563609,-,-,-,-,-,-,-,-,-,0.98,-9.12,-0.98,0.76,0.04,0.03,19.60,77.84,-0.35,-,1.17,10.43,-0.24,0.81,-0.05,0.03,0.00,0.00,0.00,22.25,
3f82,563760,2000/1/0 4:9:25,21.62,950.89,15.14,170269,532.72,206.25,3935.00,810.00,0.68,-9.31,1.07,-0.11,0.10,0.16,21.82,77.00,-5.01,11.22,0.85,9.17,0.74,-0.09,-0.13,0.20,0.00,0.00,0.00,22.34,
3f82,564706,-,-,-,-,-,-,-,-,-,1.21,-10.27,0.90,0.09,0.15,-0.07,22.01,76.18,-4.15,-,1.23,10.18,0.68,0.09,-0.18,-0.02,0.00,0.00,0.00,22.10,
3f82,564859,2000/1/0 4:9:26,21.63,950.88,15.13,170269,532.45,205.00,3936.25,810.00,0.60,-10.41,0.13,-0.06,-0.03,-0.49,22.74,75.67,-3.83,11.22,0.44,10.44,-0.32,-0.06,-0.04,-0.48,0.00,0.00,0.00,22.44,
3f82,565811,-,-,-,-,-,-,-,-,-,1.01,-9.99,0.36,-0.06,-0.03,0.08,20.84,77.27,-4.12,-,1.15,10.16,0.38,-0.06,-0.00,0.10,0.00,0.00,0.00,22.25,
3f82,565964,2000/1/0 4:9:27,21.64,950.90,15.14,171123,532.54,210.00,3935.00,830.00,1.46,-10.31,3.50,0.27,-0.16,-0.24,23.76,74.58,-14.05,11.69,1.36,10.15,3.47,0.26,0.12,-0.24,0.00,0.00,0.00,22.34,
3f82,566914,-,-,-,-,-,-,-,-,-,1.22,-9.62,4.52,0.10,-0.26,-0.24,21.50,76.43,-14.29,-,1.28,9.03,4.18,0.09,0.23,-0.23,0.00,0.00,0.00,22.29,
3f82,567065,2000/1/0 4:9:28,21.64,950.89,15.14,170269,532.54,205.00,3932.50,810.00,-2.66,-9.45,-0.22,0.08,-0.29,0.96,9.35,82.68,-1.56,11.22,-2.69,8.97,-0.44,0.09,0.32,1.00,0.00,0.00,0.00,22.10,
3f82,568012,-,-,-,-,-,-,-,-,-,0.08,-9.45,0.01,0.26,-0.61,0.55,18.68,77.73,-2.44,-,0.18,8.96,-0.29,0.27,0.62,0.54,0.00,0.00,0.00,22.29,
3f82,568161,2000/1/0 4:9:29,21.66,950.89,15.13,169761,532.63,205.00,3931.25,810.00,0.29,-10.39,-0.63,-0.28,0.01,-0.13,21.85,75.26,-4.41,11.69,0.12,9.81,-1.14,-0.30,-0.07,-0.09,0.00,0.00,0.00,22.44,
3f82,569113,-,-,-,-,-,-,-,-,-,0.70,-10.61,-0.97,0.39,-0.70,-0.19,21.91,76.21,-4.00,-,0.73,10.34,-1.43,0.40,0.67,-0.22,0.00,0.00,0.00,22.25,
3f82,569268,2000/1/0 4:9:30,21.66,950.88,15.14,167429,532.72,207.50,3933.75,820.00,-0.24,-10.69,-1.24,-0.10,0.11,-0.27,18.06,78.27,-2.72,11.69,-0.28,10.45,-1.51,-0.10,-0.15,-0.23,0.00,0.00,0.00,22.25,
3f82,570223,-,-,-,-,-,-,-,-,-,-0.09,-9.63,-0.26,-0.38,0.06,-0.22,17.70,78.46,-4.91,-,-0.11,9.46,-0.62,-0.37,-0.12,-0.18,0.00,0.00,0.00,22.34,
3f82,570381,2000/1/0 4:9:31,21.67,950.92,15.13,167923,532.54,202.50,3935.00,790.00,1.50,-10.30,0.75,-0.17,0.15,0.59,19.77,77.23,-9.82,11.22,1.53,10.56,0.22,-0.15,-0.16,0.62,0.00,0.00,0.00,22.34,
3f82,571329,-,-,-,-,-,-,-,-,-,0.57,-8.10,0.20,0.22,0.13,0.16,22.10,76.02,-7.72,-,0.57,8.26,0.01,0.24,-0.15,0.20,0.00,0.00,0.00,22.25,
3f82,571478,2000/1/0 4:9:32,21.68,950.89,15.14,165964,532.63,197.50,3933.75,780.00,1.50,-10.83,-1.92,0.81,0.32,-0.31,20.72,76.83,0.00,11.22,1.41,10.39,-1.90,0.82,-0.33,-0.27,0.00,0.00,0.00,22.15,
3f82,572427,-,-,-,-,-,-,-,-,-,2.20,-8.44,-1.81,-0.56,0.43,0.12,22.96,74.03,-0.16,-,2.20,8.53,-1.74,-0.56,-0.46,0.19,0.00,0.00,0.00,22.29,
3f82,572581,2000/1/0 4:9:33,21.69,950.88,15.14,166775,532.54,232.50,3927.50,910.00,-1.23,-9.15,-0.34,0.20,-0.03,-0.15,13.77,81.31,-2.12,11.69,-1.26,8.79,-0.82,0.21,-0.01,-0.12,0.00,0.00,0.00,22.25,
3f82,573532,-,-,-,-,-,-,-,-,-,0.01,-10.39,-0.24,-0.81,0.04,0.29,15.08,80.17,-3.71,-,-0.22,10.05,-0.71,-0.84,-0.05,0.34,0.00,0.00,0.00,22.44,
3f82,573689,2000/1/0 4:9:35,21.70,950.88,15.13,169256,532.72,227.50,3931.25,900.00,1.11,-8.38,1.12,0.20,0.03,-0.09,18.71,79.26,-6.88,11.22,1.06,8.48,1.08,0.23,-0.06,-0.08,0.00,0.00,0.00,22.49,
3f82,574635,-,-,-,-,-,-,-,-,-,-0.53,-10.93,0.45,0.01,-0.05,-0.05,16.62,79.90,-6.04,-,-0.60,10.50,0.18,0.01,0.03,-0.02,0.00,0.00,0.00,22.44,
3f82,574790,2000/1/0 4:9:36,21.71,950.87,15.13,170951,532.80,220.00,3927.50,870.00,1.51,-10.31,1.85,0.13,0.16,0.30,22.48,75.43,-11.12,11.22,1.68,9.98,1.89,0.11,-0.16,0.36,0.00,0.00,0.00,22.15,
3f82,575737,-,-,-,-,-,-,-,-,-,1.94,-9.70,1.70,0.03,0.09,-0.04,23.33,75.21,-9.88,-,2.13,9.46,1.91,0.04,-0.11,0.00,0.00,0.00,0.00,22.25,
3f82,575885,2000/1/0 4:9:37,21.72,950.87,15.13,172332,532.80,233.75,3932.50,880.00,3.39,-8.93,2.88,0.01,-0.06,-0.49,28.94,69.39,-10.86,11.22,3.40,7.66,1.49,-0.02,0.02,-0.47,0.00,0.00,0.00,22.29,
3f82,576834,-,-,-,-,-,-,-,-,-,2.44,-10.37,1.36,0.42,-0.15,-0.29,26.37,72.11,-7.86,-,2.46,10.18,1.08,0.43,0.11,-0.28,0.00,0.00,0.00,22.10,
3f82,576987,2000/1/0 4:9:38,21.73,950.87,15.11,170780,532.80,228.75,3931.25,900.00,1.45,-9.80,0.03,-0.16,0.04,0.11,24.32,73.75,-4.90,11.69,1.56,9.50,-0.29,-0.16,-0.06,0.16,0.00,0.00,0.00,22.68,
3f82,577934,-,-,-,-,-,-,-,-,-,1.22,-9.50,0.19,0.12,-0.02,-0.30,24.33,74.22,-6.46,-,1.29,9.42,0.08,0.13,-0.02,-0.27,0.00,0.00,0.00,22.44,
3f82,578086,2000/1/0 4:9:39,21.74,950.88,15.10,170780,532.80,231.25,3931.25,910.00,1.37,-9.26,0.82,-0.23,-0.03,-0.18,23.38,75.45,-7.66,11.22,1.35,9.05,0.74,-0.23,0.00,-0.14,0.00,0.00,0.00,22.34,
3f82,579035,-,-,-,-,-,-,-,-,-,1.23,-9.46,1.07,0.15,-0.02,-0.24,22.23,75.99,-7.50,-,1.28,9.37,0.73,0.16,-0.02,-0.22,0.00,0.00,0.00,22.34,
3f82,579186,2000/1/0 4:9:40,21.75,950.87,15.11,168255,532.72,220.00,3930.00,870.00,0.90,-9.72,0.86,-0.04,0.04,-0.28,21.84,76.64,-5.85,11.22,0.83,9.60,0.34,-0.04,-0.09,-0.24,0.00,0.00,0.00,22.34,
3f82,580134,-,-,-,-,-,-,-,-,-,0.75,-10.30,0.83,-0.01,0.16,-0.21,20.52,77.59,-4.60,-,0.78,9.91,0.68,-0.01,-0.19,-0.16,0.00,0.00,0.00,22.49,
3f82,580289,2000/1/0 4:9:41,21.75,950.88,15.10,167101,532.72,226.25,3928.75,880.00,0.39,-10.19,0.86,-0.24,0.12,-0.02,19.35,77.81,-4.57,11.22,0.45,9.77,0.65,-0.25,-0.15,0.03,0.00,0.00,0.00,22.49,
3f82,581237,-,-,-,-,-,-,-,-,-,1.61,-9.69,0.66,0.23,-0.08,0.21,21.53,76.13,-3.77,-,1.57,9.56,0.56,0.24,0.07,0.23,0.00,0.00,0.00,22.34,
3f82,581385,2000/1/0 4:9:42,21.76,950.88,15.08,166287,532.72,237.50,3930.00,930.00,1.27,-9.68,0.70,-0.04,-0.00,-0.18,21.48,76.50,-4.50,11.22,1.34,9.51,0.52,-0.03,-0.03,-0.15,0.00,0.00,0.00,22.25,
3f82,582334,-,-,-,-,-,-,-,-,-,0.46,-10.07,0.93,-0.03,-0.08,0.00,20.53,77.74,-5.28,-,0.44,9.69,0.62,-0.02,0.05,0.03,0.00,0.00,0.00,22.34,
3f82,582486,2000/1/0 4:9:43,21.77,950.88,15.10,166775,532.63,231.25,3930.00,910.00,0.52,-9.58,1.11,0.06,-0.05,-0.12,20.15,77.93,-5.80,11.22,0.56,9.41,0.92,0.07,0.01,-0.09,0.00,0.00,0.00,22.58,
3f82,583433,-,-,-,-,-,-,-,-,-,0.27,-9.91,0.94,-0.03,-0.03,-0.03,19.28,77.68,-6.59,-,0.33,9.62,0.73,-0.03,0.00,0.01,0.00,0.00,0.00,22.29,
3f82,583585,2000/1/0 4:9:44,21.78,950.89,15.09,170609,532.63,206.25,3935.00,810.00,0.46,-9.68,1.07,0.03,-0.04,-0.05,20.97,77.64,-5.44,11.22,0.55,9.53,0.89,0.04,0.01,-0.02,0.00,0.00,0.00,22.44,
3f82,584531,-,-,-,-,-,-,-,-,-,0.52,-9.79,0.94,0.04,-0.05,-0.09,20.37,77.77,-5.41,-,0.56,9.75,0.91,0.05,0.02,-0.06,0.00,0.00,0.00,22.29,
3f82,584682,2000/1/0 4:9:46,21.78,950.88,15.07,173913,532.63,1130.00,3770.00,4210.00,0.49,-10.08,0.88,0.01,-0.02,-0.04,20.14,77.39,-5.52,11.69,0.67,9.68,0.88,0.02,-0.01,-0.01,0.00,0.00,0.00,22.49,
3f82,585632,-,-,-,-,-,-,-,-,-,0.69,-9.75,1.17,-0.01,-0.01,-0.04,20.37,77.39,-5.95,-,0.65,9.58,0.86,-0.00,-0.02,-0.01,0.00,0.00,0.00,22.63,
3f82,585787,2000/1/0 4:9:47,21.79,950.88,15.02,174624,532.72,206.25,3932.50,810.00,0.63,-9.96,1.21,0.04,-0.02,-0.03,20.55,77.78,-5.31,11.69,0.79,9.59,0.91,0.04,-0.00,0.00,0.00,0.00,0.00,22.63,
3f82,586733,-,-,-,-,-,-,-,-,-,0.70,-9.73,1.04,0.02,-0.04,-0.05,20.59,77.39,-4.49,-,0.76,9.67,0.82,0.03,0.01,-0.02,0.00,0.00,0.00,22.58,
3f82,586884,2000/1/0 4:9:48,21.79,950.88,14.99,175522,532.72,210.00,3935.00,820.00,0.30,-9.89,0.85,0.03,-0.03,-0.03,19.63,78.56,-5.69,11.69,0.45,9.65,0.74,0.04,0.00,-0.00,0.00,0.00,0.00,22.63,
3f82,587830,-,-,-,-,-,-,-,-,-,0.27,-9.82,0.88,0.03,-0.03,-0.02,20.13,78.25,-5.69,-,0.34,9.68,0.68,0.04,0.00,0.01,0.00,0.00,0.00,22.63,
3f82,587979,2000/1/0 4:9:49,21.81,950.89,14.94,174268,532.63,207.50,3936.25,820.00,0.95,-9.85,1.54,0.08,-0.05,-0.01,20.34,77.87,-6.20,11.22,1.08,9.73,1.36,0.09,0.02,0.02,0.00,0.00,0.00,22.58,
3f82,588924,-,-,-,-,-,-,-,-,-,0.63,-9.71,0.70,0.05,0.05,0.07,20.51,78.06,-5.07,-,0.57,9.81,0.63,0.06,-0.07,0.12,0.00,0.00,0.00,22.49,
3f82,589073,2000/1/0 4:9:50,21.81,950.89,14.93,172856,532.63,203.75,3935.00,810.00,0.60,-9.89,0.94,-0.02,-0.08,-0.12,20.08,77.90,-4.81,11.22,0.56,9.72,0.79,-0.02,0.04,-0.10,0.00,0.00,0.00,22.77,
3f82,590021,-,-,-,-,-,-,-,-,-,0.29,-9.88,0.98,-0.02,-0.04,0.02,19.63,78.22,-5.71,-,0.36,9.72,0.92,-0.01,0.01,0.06,0.00,0.00,0.00,22.49,
3f82,590171,2000/1/0 4:9:51,21.82,950.88,14.91,172856,532.63,208.75,3935.00,820.00,0.48,-9.93,1.06,0.05,-0.02,-0.06,20.32,77.58,-5.98,11.69,0.64,9.73,0.89,0.05,-0.01,-0.03,0.00,0.00,0.00,22.44,
3f82,591119,-,-,-,-,-,-,-,-,-,0.68,-9.87,1.11,0.03,-0.06,-0.04,20.40,77.62,-5.41,-,0.77,9.65,0.87,0.03,0.03,-0.01,0.00,0.00,0.00,22.34,
3f82,591270,2000/1/0 4:9:52,21.83,950.88,14.88,176978,532.72,976.25,3883.75,3790.00,0.76,-9.78,0.85,0.09,-0.00,-0.03,20.39,77.20,-3.46,11.69,0.76,9.52,0.67,0.10,-0.02,0.01,0.00,0.00,0.00,22.63,
3f82,592217,-,-,-,-,-,-,-,-,-,0.57,-9.90,0.75,0.05,-0.07,-0.13,19.96,77.67,-3.99,-,0.66,9.82,0.62,0.06,0.04,-0.10,0.00,0.00,0.00,22.49,
3f82,592368,2000/1/0 4:9:53,21.83,950.87,14.84,181110,532.80,217.50,3932.50,860.00,0.47,-9.73,0.86,-0.01,-0.04,-0.07,20.10,77.81,-4.09,11.69,0.46,9.57,0.80,0.00,0.01,-0.04,0.00,0.00,0.00,22.58,
3f82,593315,-,-,-,-,-,-,-,-,-,0.48,-9.96,1.16,0.01,-0.02,-0.03,20.24,77.92,-4.56,-,0.46,9.62,0.81,0.01,-0.01,0.00,0.00,0.00,0.00,22.63,
3f82,593466,2000/1/0 4:9:54,21.84,950.86,14.78,183053,532.80,207.50,3933.75,820.00,0.19,-10.14,0.98,-0.02,-0.03,0.05,19.23,77.77,-4.24,11.69,0.34,9.95,0.86,-0.03,0.01,0.08,0.00,0.00,0.00,22.15,
3f82,594414,-,-,-,-,-,-,-,-,-,0.98,-9.48,0.73,0.14,-0.11,0.00,20.14,76.48,-2.95,-,1.06,9.45,0.49,0.14,0.09,0.02,0.00,0.00,0.00,22.58,
3f82,594563,2000/1/0 4:9:55,21.85,950.87,14.72,186656,532.72,222.50,3928.75,870.00,0.17,-9.88,0.57,0.04,-0.09,-0.07,18.84,78.41,-3.49,11.22,0.23,9.65,0.40,0.05,0.05,-0.04,0.00,0.00,0.00,22.68,
3f82,595509,-,-,-,-,-,-,-,-,-,0.31,-9.73,0.52,-0.03,-0.02,-0.04,19.53,78.05,-3.27,-,0.34,9.62,0.41,-0.02,-0.01,-0.01,0.00,0.00,0.00,22.63,
3f82,595663,2000/1/0 4:9:57,21.86,950.88,14.66,186249,532.72,220.00,3928.75,870.00,0.25,-9.55,0.78,0.04,-0.02,-0.06,18.81,78.62,-3.86,11.22,0.25,9.43,0.59,0.04,-0.01,-0.03,0.00,0.00,0.00,22.58,
3f82,596610,-,-,-,-,-,-,-,-,-,0.44,-9.66,0.95,0.02,-0.03,-0.11,19.23,78.94,-3.98,-,0.52,9.60,0.70,0.03,-0.01,-0.09,0.00,0.00,0.00,22.49,
3f82,596762,2000/1/0 4:9:58,21.86,950.87,14.60,186249,532.80,222.50,3932.50,870.00,0.37,-9.81,0.85,0.01,-0.03,-0.03,18.53,78.09,-3.89,11.22,0.38,9.69,0.63,0.02,0.00,0.00,0.00,0.00,0.00,22.58,
3f82,597707,-,-,-,-,-,-,-,-,-,0.33,-9.53,0.62,0.01,-0.03,-0.03,18.65,78.49,-3.16,-,0.30,9.77,0.63,0.04,0.01,-0.00,0.00,0.00,0.00,22.44,
3f82,597859,2000/1/0 4:9:59,21.87,950.87,14.55,183644,532.80,220.00,3931.25,870.00,0.42,-9.77,0.78,0.04,-0.05,-0.05,19.45,78.82,-4.25,11.69,0.45,9.63,0.56,0.04,0.02,-0.02,0.00,0.00,0.00,22.68,
3f82,598805,-,-,-,-,-,-,-,-,-,0.19,-9.84,0.72,0.02,-0.02,-0.03,19.18,77.39,-4.02,-,0.32,9.72,0.54,0.03,-0.01,0.01,0.00,0.00,0.00,22.44,
3f82,598955,2000/1/0 4:10:0,21.88,950.86,14.52,182857,532.80,226.25,3930.00,880.00,0.13,-9.97,0.83,0.00,-0.03,-0.02,18.50,78.69,-4.21,11.69,0.18,9.74,0.61,0.01,0.01,0.01,0.00,0.00,0.00,22.82,
3f82,599900,-,-,-,-,-,-,-,-,-,0.31,-9.78,0.89,-0.00,-0.03,-0.04,18.34,78.71,-5.23,-,0.34,9.62,0.65,0.00,-0.01,-0.01,0.00,0.00,0.00,22.63,
3f82,600053,2000/1/0 4:10:1,21.88,950.87,14.48,180154,532.80,222.50,3931.25,870.00,0.22,-9.88,0.91,0.00,-0.03,-0.04,18.34,78.68,-4.95,11.22,0.27,9.60,0.70,0.00,0.01,-0.01,0.00,0.00,0.00,22.63,
3f82,600999,-,-,-,-,-,-,-,-,-,0.26,-9.87,0.81,0.05,-0.07,-0.04,18.02,78.18,-3.54,-,0.36,9.76,0.65,0.05,0.04,-0.01,0.00,0.00,0.00,22.77,
3f82,601149,2000/1/0 4:10:2,21.89,950.87,14.45,179964,532.72,221.25,3930.00,870.00,0.31,-10.80,0.57,0.01,0.00,-0.08,17.70,78.88,-3.46,11.22,0.37,10.38,0.32,-0.01,-0.03,-0.06,0.00,0.00,0.00,22.44,
3f82,602099,-,-,-,-,-,-,-,-,-,0.19,-9.66,0.80,-0.08,-0.02,0.01,18.11,78.97,-4.09,-,0.19,9.46,0.68,-0.07,-0.01,0.04,0.00,0.00,0.00,22.68,
3f82,602250,2000/1/0 4:10:3,21.90,950.87,14.43,178833,532.72,227.50,3930.00,900.00,0.28,-9.73,0.98,0.01,-0.09,0.02,18.11,79.26,-4.79,11.22,0.33,9.50,0.82,0.01,0.07,0.05,0.00,0.00,0.00,22.49,
3f82,603194,-,-,-,-,-,-,-,-,-,0.49,-9.73,0.88,-0.32,0.03,-0.14,18.39,78.59,-6.81,-,0.57,9.95,0.94,-0.31,-0.07,-0.11,0.00,0.00,0.00,22.44,
3f82,603347,2000/1/0 4:10:4,21.90,950.87,14.41,179208,532.80,220.00,3930.00,870.00,1.33,-8.97,2.90,0.30,0.25,0.28,21.53,76.64,-9.12,11.22,1.32,9.04,2.75,0.31,-0.26,0.33,0.00,0.00,0.00,22.77,
3f82,604291,-,-,-,-,-,-,-,-,-,1.71,-9.81,1.79,-0.01,0.17,-0.56,20.84,76.92,-6.20,-,1.72,9.67,1.71,-0.01,-0.22,-0.52,0.00,0.00,0.00,22.77,
3f82,604444,2000/1/0 4:10:5,21.91,950.86,14.40,180918,532.89,233.75,3927.50,920.00,0.26,-9.93,1.46,0.19,0.05,-0.09,18.30,79.52,-4.82,11.69,0.26,9.71,1.35,0.19,-0.09,-0.06,0.00,0.00,0.00,22.82,
3f82,605390,-,-,-,-,-,-,-,-,-,0.88,-9.45,1.81,-0.12,-0.05,-0.21,18.75,78.63,-5.29,-,0.89,9.41,1.57,-0.11,0.00,-0.18,0.00,0.00,0.00,22.25,
3f82,605544,2000/1/0 4:10:6,21.91,950.86,14.37,183053,532.89,232.50,3930.00,910.00,1.08,-9.71,1.30,-0.16,0.23,-0.17,19.26,78.21,-4.59,11.69,1.07,9.79,1.13,-0.17,-0.27,-0.14,0.00,0.00,0.00,22.44,
3f82,606492,-,-,-,-,-,-,-,-,-,0.14,-9.04,2.48,-0.32,-0.00,-0.29,15.39,81.13,-6.43,-,0.25,8.85,2.36,-0.31,-0.05,-0.25,0.00,0.00,0.00,22.63,
3f82,606646,2000/1/0 4:10:8,21.92,950.85,14.35,183842,532.98,215.00,3935.00,840.00,0.61,-9.77,1.30,-0.09,-0.03,-0.05,15.90,80.68,-2.18,11.69,0.68,9.56,1.29,-0.08,0.01,-0.00,0.00,0.00,0.00,22.68,
3f82,607595,-,-,-,-,-,-,-,-,-,0.03,-9.62,1.69,0.22,-0.20,-0.07,16.87,79.58,-2.16,-,0.06,9.36,1.39,0.23,0.18,-0.05,0.00,0.00,0.00,22.63,
3f82,607746,2000/1/0 4:10:9,21.92,950.85,14.31,184637,532.98,216.25,3933.75,840.00,0.78,-9.56,1.96,0.39,-0.23,0.22,16.94,78.53,-0.44,11.22,0.75,9.59,1.71,0.40,0.22,0.22,0.00,0.00,0.00,22.77,
3f82,608690,-,-,-,-,-,-,-,-,-,0.52,-9.73,1.06,0.15,0.15,-0.01,17.92,77.81,1.39,-,0.54,9.79,0.96,0.16,-0.18,0.04,0.00,0.00,0.00,22.58,
3f82,608837,2000/1/0 4:10:10,21.93,950.85,14.29,184238,532.89,215.00,3933.75,840.00,0.50,-9.96,0.52,0.36,-0.24,0.23,17.95,78.00,1.86,11.69,0.53,9.93,0.76,0.39,0.23,0.25,0.00,0.00,0.00,22.82,
3f82,609781,-,-,-,-,-,-,-,-,-,0.90,-10.46,0.32,0.04,0.02,0.04,19.72,76.25,3.87,-,0.87,10.47,0.09,0.05,-0.05,0.07,0.00,0.00,0.00,22.58,
3f82,609930,2000/1/0 4:10:11,21.94,950.87,14.26,184238,532.80,205.00,3932.50,810.00,-0.85,-10.49,0.29,0.22,-0.52,-0.15,15.23,80.28,-1.65,11.69,-0.86,10.19,-0.05,0.23,0.49,-0.16,0.00,0.00,0.00,22.82,
3f82,610883,-,-,-,-,-,-,-,-,-,-0.44,-9.53,0.95,0.35,-0.68,0.38,16.47,80.01,-3.08,-,-0.46,9.14,0.87,0.37,0.68,0.37,0.00,0.00,0.00,22.87,
3f82,611034,2000/1/0 4:10:12,21.95,950.86,14.23,181689,532.72,218.75,3932.50,860.00,0.94,-9.50,0.74,-0.03,-0.30,-0.32,22.80,75.87,-8.71,11.69,0.91,9.50,0.45,-0.01,0.25,-0.32,0.00,0.00,0.00,22.63,
3f82,611984,-,-,-,-,-,-,-,-,-,0.21,-10.57,0.75,0.28,-0.12,0.03,21.53,77.26,-8.83,-,0.20,10.21,0.34,0.28,0.09,0.06,0.00,0.00,0.00,22.63,
3f82,612135,2000/1/0 4:10:13,21.95,950.88,14.21,180154,532.63,212.50,3932.50,830.00,0.60,-10.18,0.52,-0.03,-0.07,-0.04,20.13,78.19,-7.91,11.69,0.52,9.87,0.22,-0.03,0.04,-0.01,0.00,0.00,0.00,22.49,
3f82,613084,-,-,-,-,-,-,-,-,-,0.19,-8.95,0.11,0.15,-0.10,0.22,20.71,77.30,-6.88,-,0.24,8.73,-0.08,0.16,0.08,0.25,0.00,0.00,0.00,22.68,
3f82,613234,2000/1/0 4:10:14,21.96,950.89,14.22,176978,532.63,206.25,3933.75,810.00,0.74,-9.87,0.19,0.02,-0.03,0.11,22.54,76.05,-7.51,11.22,0.77,9.58,-0.04,0.03,0.00,0.15,0.00,0.00,0.00,22.87,
3f82,614180,-,-,-,-,-,-,-,-,-,1.21,-9.45,0.42,0.02,0.09,-0.05,23.09,75.67,-6.71,-,1.24,9.28,0.22,0.03,-0.12,-0.01,0.00,0.00,0.00,22.58,
3f82,614331,2000/1/0 4:10:15,21.97,950.89,14.22,174624,532.72,205.00,3935.00,810.00,0.14,-10.06,0.01,-0.12,0.17,-0.11,18.71,77.55,-3.71,11.69,0.06,9.80,-0.25,-0.11,-0.21,-0.07,0.00,0.00,0.00,22.87,
3f82,615283,-,-,-,-,-,-,-,-,-,0.46,-10.16,-0.14,0.06,-0.07,-0.25,19.15,77.93,-3.33,-,0.42,9.87,-0.34,0.06,0.03,-0.22,0.00,0.00,0.00,22.34,
3f82,615436,2000/1/0 4:10:16,21.97,950.88,14.22,173736,532.72,216.25,3932.50,840.00,0.21,-9.75,0.78,-0.14,-0.03,-0.05,19.53,78.16,-6.49,11.69,0.18,9.58,0.33,-0.13,-0.00,-0.01,0.00,0.00,0.00,22.63,
3f82,616387,-,-,-,-,-,-,-,-,-,0.22,-10.19,0.19,-0.05,0.03,-0.05,19.63,78.18,-6.31,-,0.24,9.87,-0.03,-0.05,-0.06,-0.02,0.00,0.00,0.00,22.82,
3f82,616542,2000/1/0 4:10:17,21.98,950.88,14.24,171639,532.72,203.75,3932.50,810.00,0.25,-9.88,0.11,-0.18,-0.08,-0.04,19.98,78.35,-5.83,11.69,0.25,9.57,-0.09,-0.17,0.06,-0.01,0.00,0.00,0.00,22.68,
3f82,617493,-,-,-,-,-,-,-,-,-,0.21,-9.78,0.24,0.17,-0.06,-0.01,19.77,77.95,-5.55,-,0.25,9.61,0.18,0.18,0.03,0.02,0.00,0.00,0.00,22.29,
3f82,617642,2000/1/0 4:10:19,21.98,950.88,14.25,170439,532.63,226.25,3932.50,860.00,0.11,-9.82,0.20,0.12,0.05,0.03,18.68,79.07,-5.77,11.69,0.22,9.63,0.00,0.13,-0.08,0.07,0.00,0.00,0.00,22.34,
3f82,618587,-,-,-,-,-,-,-,-,-,0.10,-9.53,0.74,0.02,-0.05,-0.19,18.34,78.60,-4.40,-,0.11,9.44,0.58,0.04,0.02,-0.17,0.00,0.00,0.00,22.63,
3f82,618738,2000/1/0 4:10:20,21.99,950.88,14.28,171294,532.72,225.00,3928.75,880.00,-0.27,-10.14,0.03,-0.01,-0.00,0.03,17.36,80.12,-3.68,11.22,-0.32,9.84,-0.31,-0.01,-0.03,0.07,0.00,0.00,0.00,22.68,
3f82,619690,-,-,-,-,-,-,-,-,-,-0.01,-9.96,0.05,-0.01,0.02,-0.06,18.39,79.00,-3.22,-,-0.12,9.67,-0.14,-0.01,-0.06,-0.03,0.00,0.00,0.00,22.63,
3f82,619847,2000/1/0 4:10:21,21.99,950.88,14.28,171812,532.63,1037.50,3890.00,860.00,0.07,-9.75,0.17,0.05,-0.22,-0.01,17.76,79.55,-6.47,12.63,0.04,9.62,-0.01,0.05,0.20,0.00,0.00,0.00,0.00,22.63,
3f82,620795,-,-,-,-,-,-,-,-,-,-0.09,-10.09,0.13,0.04,-0.11,0.09,17.82,79.83,-6.53,-,-0.08,9.62,-0.01,0.04,0.09,0.11,0.00,0.00,0.00,22.58,
3f82,620947,2000/1/0 4:10:22,22.00,950.88,14.29,170951,532.63,225.00,3931.25,880.00,0.27,-9.82,0.03,0.11,-0.07,0.08,18.43,78.62,-4.25,11.69,0.36,9.57,-0.16,0.13,0.06,0.11,0.00,0.00,0.00,22.63,
3f82,621894,-,-,-,-,-,-,-,-,-,0.03,-9.66,0.28,-0.05,-0.15,0.03,18.94,78.53,-4.56,-,0.08,9.46,0.02,-0.04,0.12,0.06,0.00,0.00,0.00,22.34,
3f82,622045,2000/1/0 4:10:23,22.01,950.88,14.30,171123,532.63,220.00,3928.75,870.00,0.49,-9.88,-0.11,0.01,0.07,-0.11,20.32,77.54,-2.56,11.69,0.52,9.62,-0.38,0.01,-0.11,-0.07,0.00,0.00,0.00,22.63,
3f82,622994,-,-,-,-,-,-,-,-,-,0.44,-9.94,0.12,-0.03,0.02,-0.16,19.48,78.16,-2.21,-,0.40,9.63,-0.08,-0.02,-0.05,-0.13,0.00,0.00,0.00,22.77,
3f82,623148,2000/1/0 4:10:24,22.02,950.92,14.30,170439,532.45,227.50,3928.75,900.00,0.02,-10.30,0.50,-0.07,0.01,0.19,18.43,79.23,-5.10,11.69,0.04,10.08,0.15,-0.07,-0.04,0.22,0.00,0.00,0.00,22.68,
3f82,624098,-,-,-,-,-,-,-,-,-,0.45,-9.63,-0.02,0.04,0.26,0.12,20.67,77.92,-4.46,-,0.43,9.48,-0.35,0.04,-0.28,0.18,0.00,0.00,0.00,22.77,
3f82,624249,2000/1/0 4:10:25,22.02,950.90,14.32,170780,532.54,231.25,3931.25,910.00,-0.40,-10.24,0.26,0.02,-0.35,-0.05,17.52,79.89,-4.71,11.69,-0.50,9.90,0.04,0.02,0.32,-0.03,0.00,0.00,0.00,22.96,
3f82,625199,-,-,-,-,-,-,-,-,-,0.03,-9.70,0.75,0.03,0.09,-0.07,17.68,79.90,-5.71,-,-0.11,9.46,0.53,0.04,-0.12,-0.03,0.00,0.00,0.00,22.68,
3f82,625351,2000/1/0 4:10:26,22.03,950.89,14.32,170609,532.63,220.00,3928.75,870.00,0.06,-9.74,0.41,0.14,0.00,-0.18,16.71,79.26,-3.08,11.69,-0.01,9.59,0.20,0.15,-0.04,-0.15,0.00,0.00,0.00,22.58,
3f82,626299,-,-,-,-,-,-,-,-,-,-0.15,-10.29,-0.06,0.10,-0.19,-0.07,15.97,79.92,-2.31,-,-0.26,10.06,-0.35,0.10,0.16,-0.06,0.00,0.00,0.00,22.58,
3f82,626455,2000/1/0 4:10:27,22.04,950.88,14.33,168255,532.63,221.25,3931.25,870.00,-0.44,-9.82,0.61,-0.10,0.08,-0.18,15.93,80.30,-3.39,11.69,-0.63,9.54,0.41,-0.10,-0.13,-0.14,0.00,0.00,0.00,22.77,
3f82,627407,-,-,-,-,-,-,-,-,-,-0.80,-10.11,0.21,0.01,-0.05,-0.23,14.53,81.44,-3.07,-,-0.92,9.72,0.02,0.02,0.01,-0.19,0.00,0.00,0.00,22.82,
3f82,627561,2000/1/0 4:10:28,22.04,950.88,14.35,168255,532.54,222.50,3930.00,870.00,-0.58,-9.62,0.25,0.08,-0.03,0.07,14.12,81.48,-1.13,11.69,-0.53,9.14,-0.00,0.07,0.02,0.11,0.00,0.00,0.00,22.49,
3f82,628510,-,-,-,-,-,-,-,-,-,-0.67,-9.63,0.67,0.05,-0.06,-0.14,14.16,81.39,-1.48,-,-0.80,9.31,0.41,0.06,0.02,-0.12,0.00,0.00,0.00,22.44,
3f82,628663,2000/1/0 4:10:30,22.05,950.89,14.37,166287,532.63,203.75,3931.25,810.00,-0.66,-9.76,0.53,-0.04,0.07,-0.00,14.75,81.77,-2.97,11.69,-0.69,9.45,0.39,-0.03,-0.10,0.04,0.00,0.00,0.00,22.87,
3f82,629613,-,-,-,-,-,-,-,-,-,-0.78,-10.04,0.27,0.02,0.09,-0.05,14.79,81.75,-3.00,-,-0.83,9.69,0.11,0.03,-0.12,-0.01,0.00,0.00,0.00,22.77,
3f82,629768,2000/1/0 4:10:31,22.05,950.89,14.38,166287,532.54,203.75,3931.25,810.00,-0.83,-9.78,0.51,0.03,-0.04,-0.06,14.85,80.80,-4.62,11.69,-0.95,9.52,0.19,0.04,0.00,-0.03,0.00,0.00,0.00,22.34,
3f82,630717,-,-,-,-,-,-,-,-,-,-0.84,-9.83,0.90,0.01,0.12,-0.09,13.94,82.08,-3.07,-,-0.88,9.54,0.58,0.01,-0.15,-0.05,0.00,0.00,0.00,22.82,
3f82,630870,2000/1/0 4:10:32,22.06,950.89,14.40,165642,532.54,206.25,3933.75,810.00,-0.75,-9.95,0.44,0.09,-0.10,-0.12,13.67,81.98,-2.22,11.69,-0.79,9.72,0.21,0.10,0.07,-0.09,0.00,0.00,0.00,22.87,
3f82,631820,-,-,-,-,-,-,-,-,-,-1.00,-9.76,0.06,0.08,-0.08,0.04,13.77,81.82,-1.61,-,-1.16,9.44,-0.19,0.08,0.05,0.07,0.00,0.00,0.00,22.68,
3f82,631972,2000/1/0 4:10:33,22.07,950.89,14.41,165321,532.63,216.25,3933.75,840.00,-0.49,-9.76,0.24,-0.01,0.01,0.06,14.41,81.83,-2.66,11.69,-0.57,9.66,0.08,-0.00,-0.03,0.10,0.00,0.00,0.00,22.77,
3f82,632921,-,-,-,-,-,-,-,-,-,-0.60,-9.80,0.78,-0.10,-0.01,-0.01,14.07,81.69,-2.65,-,-0.75,9.44,0.55,-0.10,-0.02,0.02,0.00,0.00,0.00,22.77,
3f82,633076,2000/1/0 4:10:34,22.08,950.89,14.43,164207,532.54,218.75,3933.75,810.00,-0.35,-9.80,0.68,0.07,-0.03,-0.02,15.92,80.42,-3.98,11.69,-0.40,9.67,0.54,0.08,0.01,0.00,0.00,0.00,0.00,22.68,
3f82,634025,-,-,-,-,-,-,-,-,-,-0.37,-9.91,0.60,-0.03,0.04,-0.02,15.59,80.87,-3.77,-,-0.49,9.72,0.41,-0.02,-0.07,0.02,0.00,0.00,0.00,22.68,
3f82,634179,2000/1/0 4:10:35,22.08,950.89,14.44,163265,532.63,226.25,3933.75,810.00,-0.07,-10.28,0.31,0.02,-0.18,-0.10,17.86,79.38,-3.71,11.69,-0.13,10.06,0.05,0.02,0.15,-0.09,0.00,0.00,0.00,22.87,
3f82,635131,-,-,-,-,-,-,-,-,-,-0.14,-9.47,0.93,-0.26,-0.10,-0.27,16.81,80.78,-5.83,-,-0.32,9.29,0.82,-0.26,0.05,-0.24,0.00,0.00,0.00,22.82,
3f82,635286,2000/1/0 4:10:36,22.09,950.89,14.46,163892,532.63,213.75,3935.00,840.00,0.81,-11.06,0.70,-0.63,0.15,-0.36,21.43,77.05,-10.83,11.69,0.44,11.75,0.62,-0.66,-0.23,-0.36,0.00,0.00,0.00,22.87,
3f82,636239,-,-,-,-,-,-,-,-,-,0.80,-8.29,2.25,-0.22,-0.23,-0.11,17.03,79.95,-14.66,-,0.90,7.76,2.63,-0.21,0.21,-0.08,0.00,0.00,0.00,22.87,
3f82,636392,2000/1/0 4:10:37,22.09,950.89,14.47,164365,532.63,211.25,3932.50,830.00,-0.99,-9.45,2.26,-0.15,-0.05,0.04,14.12,82.33,-11.44,11.69,-1.00,9.15,2.17,-0.14,0.04,0.08,0.00,0.00,0.00,22.49,
3f82,637343,-,-,-,-,-,-,-,-,-,-1.17,-9.35,1.81,0.39,-0.05,0.04,15.52,81.54,-10.99,-,-1.22,9.28,1.63,0.40,0.03,0.06,0.00,0.00,0.00,22.87,
3f82,637495,2000/1/0 4:10:38,22.10,950.88,14.48,168587,532.63,211.25,3932.50,830.00,-0.57,-9.76,1.16,0.16,-0.05,0.05,15.93,80.87,-7.83,11.22,-0.69,9.45,0.91,0.18,0.03,0.08,0.00,0.00,0.00,22.68,
3f82,638442,-,-,-,-,-,-,-,-,-,-0.37,-9.98,0.96,0.05,0.02,-0.06,16.38,80.77,-6.24,-,-0.37,9.79,0.78,0.06,-0.05,-0.03,0.00,0.00,0.00,22.68,
3f82,638594,2000/1/0 4:10:39,22.11,950.88,14.49,170269,532.63,211.25,3931.25,830.00,0.14,-10.08,0.63,-0.17,-0.16,-0.01,16.95,80.30,-6.36,11.69,0.18,9.85,0.46,-0.18,0.14,0.01,0.00,0.00,0.00,22.58,
3f82,639544,-,-,-,-,-,-,-,-,-,-0.17,-9.37,1.30,0.04,-0.32,0.08,17.06,80.24,-8.96,-,-0.19,9.05,1.09,0.05,0.30,0.10,0.00,0.00,0.00,22.49,
3f82,639695,2000/1/0 4:10:41,22.11,950.88,14.49,172158,532.63,220.00,3928.75,870.00,-0.24,-9.20,1.32,0.18,-0.29,0.16,17.82,78.94,-11.31,11.69,-0.28,8.94,1.07,0.19,0.28,0.17,0.00,0.00,0.00,22.68,
3f82,640643,-,-,-,-,-,-,-,-,-,0.54,-9.81,0.89,-0.24,0.08,-0.13,19.50,78.72,-11.59,-,0.44,9.56,0.62,-0.24,-0.12,-0.09,0.00,0.00,0.00,22.77,
3f82,640797,2000/1/0 4:10:42,22.12,950.89,14.46,174446,532.63,221.25,3931.25,870.00,-0.17,-10.09,1.06,0.13,-0.01,-0.09,17.36,79.68,-10.58,11.69,-0.26,9.85,0.77,0.14,-0.02,-0.07,0.00,0.00,0.00,22.68,
3f82,641750,-,-,-,-,-,-,-,-,-,0.17,-8.41,0.27,-0.23,0.02,-0.04,18.21,79.60,-11.52,-,0.28,9.41,0.84,-0.19,-0.05,-0.01,0.00,0.00,0.00,22.63,
3f82,641903,2000/1/0 4:10:43,22.12,950.88,14.44,174446,532.63,220.00,3927.50,870.00,0.02,-9.89,0.81,-0.21,0.02,-0.17,16.66,80.31,-10.19,11.69,0.01,9.57,0.59,-0.21,-0.06,-0.14,0.00,0.00,0.00,22.77,
3f82,642854,-,-,-,-,-,-,-,-,-,-0.67,-9.78,0.99,0.13,0.05,-0.03,15.99,80.61,-10.76,-,-0.74,9.61,0.73,0.13,-0.08,0.01,0.00,0.00,0.00,22.87,
3f82,643007,2000/1/0 4:10:44,22.13,950.88,14.42,173031,532.72,220.00,3931.25,870.00,-0.72,-9.91,0.92,0.04,-0.12,-0.16,16.40,80.87,-12.25,11.69,-0.79,9.67,0.73,0.05,0.09,-0.13,0.00,0.00,0.00,22.63,
3f82,643958,-,-,-,-,-,-,-,-,-,-0.62,-9.80,0.98,-0.03,-0.05,0.04,15.87,81.19,-12.22,-,-0.60,9.57,0.72,-0.02,0.02,0.07,0.00,0.00,0.00,22.68,
3f82,644111,2000/1/0 4:10:45,22.13,950.88,14.41,171466,532.72,221.25,3927.50,870.00,-0.39,-10.11,0.70,0.03,-0.01,-0.01,17.64,80.93,-12.39,11.69,-0.55,9.76,0.34,0.04,-0.02,0.02,0.00,0.00,0.00,22.87,
3f82,645062,-,-,-,-,-,-,-,-,-,-0.34,-9.68,0.87,-0.09,0.08,-0.08,17.25,80.62,-12.48,-,-0.35,9.52,0.61,-0.08,-0.11,-0.05,0.00,0.00,0.00,22.82,
3f82,645219,2000/1/0 4:10:46,22.14,950.88,14.39,171466,532.63,233.75,3930.00,920.00,-0.82,-10.29,0.09,0.03,-0.12,-0.08,17.13,80.69,-9.51,11.69,-0.82,10.06,0.04,0.04,0.09,-0.04,0.00,0.00,0.00,22.87,
3f82,646171,-,-,-,-,-,-,-,-,-,-0.34,-9.76,0.63,0.02,-0.15,0.11,17.51,80.42,-10.58,-,-0.48,9.44,0.41,0.03,0.13,0.14,0.00,0.00,0.00,22.82,
3f82,646322,2000/1/0 4:10:47,22.15,950.89,14.38,168587,532.63,226.25,3926.25,880.00,-0.39,-9.49,0.12,-0.07,0.01,-0.15,18.01,79.95,-9.75,11.69,-0.44,9.83,0.36,-0.05,-0.05,-0.13,0.00,0.00,0.00,23.16,
3f82,647273,-,-,-,-,-,-,-,-,-,-0.29,-9.76,0.40,0.24,-0.06,0.06,17.77,80.63,-10.30,-,-0.36,9.56,0.32,0.25,0.04,0.09,0.00,0.00,0.00,22.68,
3f82,647426,2000/1/0 4:10:48,22.15,950.92,14.39,167429,532.37,227.50,3926.25,900.00,-0.75,-9.86,0.54,-0.04,0.04,-0.02,16.14,80.96,-10.68,11.69,-0.85,9.62,0.31,-0.04,-0.08,0.01,0.00,0.00,0.00,22.77,
3f82,648377,-,-,-,-,-,-,-,-,-,-0.57,-9.60,0.92,0.06,0.02,0.02,16.63,80.59,-11.14,-,-0.69,9.35,0.67,0.07,-0.05,0.06,0.00,0.00,0.00,22.87,
3f82,648528,2000/1/0 4:10:49,22.16,950.91,14.38,167923,532.45,227.50,3926.25,900.00,-0.56,-9.81,0.69,0.02,-0.01,-0.02,16.38,81.51,-10.48,11.69,-0.72,9.56,0.34,0.03,-0.02,0.01,0.00,0.00,0.00,22.87,
3f82,649479,-,-,-,-,-,-,-,-,-,-0.47,-9.72,0.48,0.01,-0.04,-0.04,16.12,81.60,-10.19,-,-0.44,9.54,0.42,0.01,0.01,-0.02,0.00,0.00,0.00,22.82,
3f82,649632,2000/1/0 4:10:51,22.17,950.91,14.37,169088,532.45,206.25,3932.50,810.00,-0.96,-9.87,0.56,-0.06,-0.00,-0.09,15.81,81.29,-10.01,11.69,-1.07,9.66,0.42,-0.06,-0.03,-0.05,0.00,0.00,0.00,22.68,
3f82,650586,-,-,-,-,-,-,-,-,-,-0.47,-9.57,0.98,0.24,-0.11,-0.04,16.05,81.12,-11.05,-,-0.52,9.39,0.80,0.25,0.09,-0.02,0.00,0.00,0.00,22.87,
3f82,650740,2000/1/0 4:10:52,22.17,950.90,14.35,170951,532.54,212.50,3931.25,830.00,-0.47,-9.87,0.22,0.11,0.03,0.07,15.73,81.98,-8.42,11.69,-0.50,9.54,0.21,0.12,-0.05,0.11,0.00,0.00,0.00,22.87,
3f82,651688,-,-,-,-,-,-,-,-,-,-0.65,-9.96,0.07,0.04,-0.12,0.07,16.79,80.91,-7.99,-,-0.70,9.69,-0.20,0.05,0.10,0.10,0.00,0.00,0.00,22.68,
3f82,651839,2000/1/0 4:10:53,22.18,950.90,14.33,173559,532.54,207.50,3931.25,820.00,-0.70,-10.23,0.70,0.01,0.01,-0.16,16.81,80.46,-8.61,11.69,-0.34,9.87,0.56,0.03,-0.06,-0.13,0.00,0.00,0.00,22.87,
3f82,652789,-,-,-,-,-,-,-,-,-,-0.50,-10.08,0.58,0.03,0.15,0.17,17.22,80.31,-9.03,-,-0.59,9.73,0.18,0.04,-0.18,0.21,0.00,0.00,0.00,23.01,
3f82,652941,2000/1/0 4:10:54,22.19,950.89,14.32,173031,532.54,203.75,3931.25,810.00,-0.17,-9.12,0.24,0.13,-0.03,-0.11,17.25,80.24,-5.76,11.69,-0.29,9.04,1.00,0.16,0.00,-0.08,0.00,0.00,0.00,22.63,
3f82,653891,-,-,-,-,-,-,-,-,-,0.00,-9.96,0.20,0.06,0.01,-0.03,18.84,79.13,-4.44,-,-0.11,9.84,-0.16,0.06,-0.04,-0.00,0.00,0.00,0.00,22.63,
3f82,654044,2000/1/0 4:10:55,22.19,950.89,14.29,172158,532.54,206.25,3928.75,810.00,-0.02,-9.73,0.09,0.02,-0.04,0.06,17.54,79.89,-5.09,11.69,-0.03,9.45,-0.16,0.02,0.01,0.09,0.00,0.00,0.00,22.77,
3f82,654992,-,-,-,-,-,-,-,-,-,0.09,-9.91,0.12,-0.15,-0.02,-0.19,18.01,78.78,-4.95,-,-0.03,9.63,-0.04,-0.15,-0.02,-0.15,0.00,0.00,0.00,22.82,
3f82,655149,2000/1/0 4:10:56,22.20,950.90,14.27,171294,532.54,952.50,3925.00,3740.00,-0.58,-10.16,0.56,-0.00,-0.03,-0.06,16.02,80.69,-6.26,11.69,-0.70,9.90,0.40,-0.01,-0.01,-0.03,0.00,0.00,0.00,22.87,
3f82,656104,-,-,-,-,-,-,-,-,-,-0.04,-9.74,0.49,0.10,-0.02,-0.05,17.20,80.44,-6.33,-,-0.16,9.73,0.30,0.11,-0.00,-0.03,0.00,0.00,0.00,22.87,
3f82,656258,2000/1/0 4:10:57,22.20,950.89,14.26,169761,532.63,207.50,3933.75,820.00,-0.09,-9.95,0.65,0.05,-0.05,-0.09,18.04,80.21,-5.22,11.69,-0.16,9.67,0.39,0.06,0.02,-0.06,0.00,0.00,0.00,22.96,
3f82,657207,-,-,-,-,-,-,-,-,-,-0.11,-9.64,0.47,-0.03,0.08,-0.04,17.22,79.99,-6.27,-,-0.17,9.44,0.33,-0.02,-0.11,-0.00,0.00,0.00,0.00,22.87,
3f82,657363,2000/1/0 4:10:58,22.21,950.89,14.25,167923,532.63,217.50,3931.25,860.00,-0.15,-10.09,0.07,-0.00,-0.07,-0.04,16.75,80.66,-2.89,11.69,-0.23,10.04,0.05,-0.00,0.04,-0.02,0.00,0.00,0.00,22.82,
3f82,658316,-,-,-,-,-,-,-,-,-,0.04,-9.98,0.04,0.05,0.03,-0.03,16.15,80.52,-3.54,-,0.01,9.83,-0.10,0.06,-0.06,-0.00,0.00,0.00,0.00,22.87,
3f82,658468,2000/1/0 4:10:59,22.21,950.89,14.26,165964,532.63,202.50,3931.25,790.00,-0.49,-9.68,0.47,0.24,-0.09,0.00,16.28,81.19,-5.57,11.69,-0.58,9.50,0.24,0.25,0.07,0.03,0.00,0.00,0.00,22.96,
3f82,659416,-,-,-,-,-,-,-,-,-,-0.91,-10.07,0.30,-0.12,0.09,-0.11,16.28,81.23,-4.46,-,-1.07,9.84,0.01,-0.12,-0.13,-0.08,0.00,0.00,0.00,22.82,
3f82,659572,2000/1/0 4:11:0,22.22,950.89,14.27,163892,532.54,217.50,3935.00,860.00,-0.96,-10.20,0.15,0.02,-0.13,0.23,14.10,81.70,-4.08,11.69,-1.02,9.93,-0.16,0.03,0.11,0.26,0.00,0.00,0.00,22.87,
3f82,660520,-,-,-,-,-,-,-,-,-,-0.39,-10.11,0.26,-0.01,0.02,-0.12,15.80,80.75,-3.99,-,-0.52,9.83,-0.06,-0.01,-0.05,-0.09,0.00,0.00,0.00,22.82,
3f82,660677,2000/1/0 4:11:2,22.22,950.90,14.30,161871,532.54,220.00,3931.25,870.00,-0.27,-9.96,0.16,-0.02,0.08,-0.15,16.31,80.82,-2.91,11.69,-0.42,9.66,-0.07,-0.01,-0.11,-0.11,0.00,0.00,0.00,22.87,
3f82,661629,-,-,-,-,-,-,-,-,-,-0.25,-10.06,0.12,-0.04,-0.04,0.02,16.46,80.43,-2.65,-,-0.39,9.85,-0.11,-0.04,0.02,0.05,0.00,0.00,0.00,22.49,
3f82,661784,2000/1/0 4:11:3,22.23,950.90,14.34,162025,532.54,222.50,3930.00,870.00,-1.10,-9.96,-0.17,0.24,-0.14,0.09,16.02,80.30,-1.86,11.69,-0.41,9.23,0.00,0.25,0.11,0.11,0.00,0.00,0.00,22.96,
3f82,662731,-,-,-,-,-,-,-,-,-,-0.23,-9.35,0.32,-0.09,-0.04,-0.04,16.18,80.20,-2.79,-,-0.40,9.16,0.11,-0.09,0.01,-0.02,0.00,0.00,0.00,22.87,
3f82,662887,2000/1/0 4:11:4,22.24,950.90,14.37,161107,532.63,221.25,3928.75,870.00,-0.53,-9.83,0.17,-0.00,-0.15,-0.18,14.57,81.23,-4.18,11.69,-0.59,9.47,-0.09,0.00,0.12,-0.15,0.00,0.00,0.00,22.87,
3f82,663837,-,-,-,-,-,-,-,-,-,-0.85,-10.04,0.26,-0.03,-0.02,-0.08,15.26,80.66,-3.67,-,-0.99,9.95,-0.11,-0.02,-0.01,-0.05,0.00,0.00,0.00,23.16,
3f82,663996,2000/1/0 4:11:5,22.24,950.89,14.40,162179,532.63,226.25,3931.25,880.00,-0.54,-9.64,0.04,0.27,-0.17,0.47,17.20,79.58,-5.23,11.69,-0.70,9.63,-0.38,0.28,0.17,0.47,0.00,0.00,0.00,22.77,
3f82,664943,-,-,-,-,-,-,-,-,-,0.03,-9.76,-0.11,0.08,-0.01,-0.07,17.87,79.60,-4.09,-,-0.03,9.47,-0.43,0.09,-0.01,-0.04,0.00,0.00,0.00,22.87,
3f82,665098,2000/1/0 4:11:6,22.25,950.90,14.43,162488,532.54,221.25,3930.00,870.00,-1.59,-10.20,-0.14,-0.29,-0.09,-0.16,15.84,81.61,-6.64,11.69,-1.61,9.27,-0.59,-0.30,0.05,-0.12,0.00,0.00,0.00,22.87,
3f82,666052,-,-,-,-,-,-,-,-,-,-0.32,-9.84,0.57,0.08,-0.04,-0.00,17.26,80.37,-8.27,-,-0.41,9.96,0.20,0.08,0.02,0.02,0.00,0.00,0.00,22.82,
3f82,666204,2000/1/0 4:11:7,22.25,950.90,14.46,162179,532.54,235.00,3931.25,920.00,-0.52,-9.93,0.77,0.08,-0.04,0.01,16.81,79.67,-9.76,11.69,-0.64,9.73,0.48,0.09,0.01,0.03,0.00,0.00,0.00,23.01,
3f82,667150,-,-,-,-,-,-,-,-,-,-0.55,-9.86,0.10,0.07,-0.03,-0.10,16.79,80.28,-10.87,-,-0.64,9.64,-0.01,0.08,-0.01,-0.07,0.00,0.00,0.00,22.96,
3f82,667307,2000/1/0 4:11:8,22.26,950.90,14.48,162333,532.54,228.75,3930.00,900.00,-1.37,-10.34,0.13,0.05,0.02,-0.03,16.15,81.16,-10.44,11.69,-1.43,9.90,-0.12,0.05,-0.05,0.01,0.00,0.00,0.00,23.01,
3f82,668258,-,-,-,-,-,-,-,-,-,-0.38,-9.81,0.17,-0.02,0.08,-0.21,16.24,80.56,-10.26,-,-0.49,9.53,0.09,-0.01,-0.12,-0.17,0.00,0.00,0.00,23.01,
3f82,668413,2000/1/0 4:11:9,22.27,950.90,14.51,161565,532.54,226.25,3927.50,880.00,-1.79,-10.41,0.13,0.08,-0.27,-0.14,15.29,81.22,-9.47,11.69,-1.98,10.17,-0.15,0.08,0.24,-0.13,0.00,0.00,0.00,23.20,
3f82,669365,-,-,-,-,-,-,-,-,-,-0.61,-9.37,0.52,0.22,-0.09,0.20,14.69,81.88,-10.54,-,-0.72,9.05,0.29,0.24,0.08,0.24,0.00,0.00,0.00,23.16,
3f82,669516,2000/1/0 4:11:10,22.27,950.90,14.52,161871,532.28,233.75,3930.00,920.00,0.84,-10.67,-4.07,-0.19,-0.19,-0.74,21.47,76.31,-1.56,11.69,0.90,9.81,-4.60,-0.22,0.12,-0.73,0.00,0.00,0.00,23.01,
3f82,670468,-,-,-,-,-,-,-,-,-,0.09,-10.38,-4.05,0.37,0.16,-0.15,19.13,78.12,-1.11,-,0.05,9.98,-4.64,0.37,-0.20,-0.11,0.00,0.00,0.00,22.87,
3f82,670623,2000/1/0 4:11:12,22.28,950.93,14.55,162025,532.28,212.50,3930.00,830.00,-0.30,-10.98,-3.64,-0.43,0.03,-0.00,17.60,78.40,-3.13,11.69,-0.46,10.27,-4.15,-0.45,-0.07,0.05,0.00,0.00,0.00,23.11,
3f82,671577,-,-,-,-,-,-,-,-,-,0.42,-9.99,-2.01,-0.27,0.22,0.01,20.68,76.95,-5.57,-,0.41,9.57,-2.35,-0.28,-0.26,0.06,0.00,0.00,0.00,22.96,
3f82,671731,2000/1/0 4:11:13,22.28,950.93,14.56,161871,532.37,203.75,3935.00,790.00,-0.31,-9.63,-0.67,0.22,-0.04,0.09,17.04,80.30,-9.40,11.69,-0.56,9.36,-1.02,0.22,0.02,0.12,0.00,0.00,0.00,22.87,
3f82,672680,-,-,-,-,-,-,-,-,-,-0.23,-10.12,0.21,-0.05,0.01,-0.26,16.52,80.34,-9.95,-,-0.38,9.73,-0.02,-0.04,-0.05,-0.23,0.00,0.00,0.00,23.16,
3f82,672838,2000/1/0 4:11:14,22.29,950.92,14.57,162798,532.37,200.00,3936.25,790.00,-0.14,-10.06,-2.76,0.11,-0.03,-0.50,16.68,80.59,-7.22,11.69,-0.30,9.73,-3.16,0.11,-0.02,-0.48,0.00,0.00,0.00,23.01,
3f82,673791,-,-,-,-,-,-,-,-,-,-0.69,-9.98,-2.55,0.17,-0.04,0.01,14.73,81.92,-7.50,-,-0.65,9.55,-3.02,0.19,0.01,0.04,0.00,0.00,0.00,22.87,
3f82,673945,2000/1/0 4:11:15,22.30,950.93,14.59,163109,532.19,193.75,3935.00,770.00,-0.79,-9.14,-2.76,0.09,-0.01,-0.03,13.50,81.58,-6.34,12.16,-0.91,8.73,-3.02,0.10,-0.02,0.00,0.00,0.00,0.00,23.16,
3f82,674896,-,-,-,-,-,-,-,-,-,-0.65,-9.27,-2.48,0.05,-0.04,-0.05,13.97,81.54,-6.02,-,-0.71,8.83,-2.84,0.06,0.01,-0.01,0.00,0.00,0.00,23.01,
3f82,675051,2000/1/0 4:11:16,22.31,950.93,14.59,163109,532.28,201.25,3933.75,790.00,-0.78,-9.60,-3.04,-0.00,-0.05,-0.01,13.08,81.57,-4.05,11.69,-0.98,9.08,-3.39,-0.01,0.02,0.02,0.00,0.00,0.00,22.82,
3f82,676003,-,-,-,-,-,-,-,-,-,-0.72,-9.27,-2.69,0.04,-0.06,0.01,14.21,81.51,-5.16,-,-0.79,8.84,-3.09,0.05,0.03,0.03,0.00,0.00,0.00,22.96,
3f82,676156,2000/1/0 4:11:17,22.32,950.93,14.60,162025,532.19,203.75,3935.00,810.00,-0.60,-9.23,-3.03,0.02,0.00,0.02,13.80,81.73,-3.54,11.69,-0.68,8.88,-3.24,0.02,-0.03,0.05,0.00,0.00,0.00,23.20,
3f82,677105,-,-,-,-,-,-,-,-,-,-0.62,-9.30,-3.01,0.03,-0.02,-0.03,13.99,81.42,-3.65,-,-0.69,8.86,-3.34,0.03,-0.01,0.01,0.00,0.00,0.00,22.96,
3f82,677260,2000/1/0 4:11:18,22.32,950.94,14.59,161871,532.19,206.25,3931.25,810.00,-0.82,-9.49,-3.14,0.01,-0.03,-0.05,13.99,81.95,-4.65,11.69,-0.94,8.88,-3.52,0.03,0.00,-0.02,0.00,0.00,0.00,22.68,
3f82,678212,-,-,-,-,-,-,-,-,-,-0.59,-9.38,-3.15,0.00,-0.04,-0.02,13.86,80.96,-4.17,-,-0.70,8.90,-3.45,0.00,0.01,0.01,0.00,0.00,0.00,23.01,
3f82,678365,2000/1/0 4:11:19,22.33,950.94,14.59,163265,532.10,216.25,3930.00,840.00,-0.78,-9.41,-2.91,-0.00,-0.03,-0.02,14.12,81.75,-5.07,11.69,-0.89,8.87,-3.24,0.00,-0.00,0.02,0.00,0.00,0.00,23.01,
3f82,679318,-,-,-,-,-,-,-,-,-,-0.47,-9.59,-3.07,-0.06,-0.01,-0.02,14.25,81.80,-4.69,-,-0.55,9.10,-3.38,-0.06,-0.03,0.01,0.00,0.00,0.00,23.16,
3f82,679475,2000/1/0 4:11:20,22.34,950.95,14.59,163578,532.19,218.75,3933.75,860.00,-0.74,-9.53,-1.74,-0.42,0.44,0.53,17.30,79.83,-6.27,12.16,-0.81,9.06,-2.11,-0.41,-0.45,0.61,0.00,0.00,0.00,22.96,
3f82,680427,-,-,-,-,-,-,-,-,-,1.36,-9.32,-1.15,-0.58,0.54,0.09,19.58,78.87,-5.88,-,1.52,8.78,-1.09,-0.59,-0.57,0.17,0.00,0.00,0.00,22.96,
3f82,680580,2000/1/0 4:11:21,22.34,950.94,14.58,165001,532.19,228.75,3930.00,900.00,0.03,-10.71,-0.46,0.04,-0.09,-0.25,16.19,81.85,-11.02,11.69,-0.09,10.50,-0.84,0.04,0.05,-0.23,0.00,0.00,0.00,23.01,
3f82,681534,-,-,-,-,-,-,-,-,-,-1.39,-10.02,0.29,-0.27,-0.01,0.14,14.24,81.61,-11.52,-,-1.51,9.68,0.05,-0.27,-0.01,0.18,0.00,0.00,0.00,23.01,
3f82,681690,2000/1/0 4:11:23,22.35,950.93,14.55,166287,532.37,226.25,3931.25,880.00,-0.36,-9.69,-0.15,0.04,-0.06,0.31,16.87,81.06,-10.93,11.69,-0.39,9.34,-0.42,0.05,0.05,0.35,0.00,0.00,0.00,23.01,
3f82,682641,-,-,-,-,-,-,-,-,-,0.24,-10.17,-0.13,-0.07,-0.08,-0.03,18.61,79.28,-10.92,-,0.32,9.95,-0.50,-0.06,0.05,-0.01,0.00,0.00,0.00,23.16,
3f82,682798,2000/1/0 4:11:24,22.35,950.92,14.52,166938,532.37,232.50,3928.75,910.00,0.43,-10.08,0.55,-0.02,0.23,-0.22,19.13,78.63,-13.07,12.16,0.45,9.88,0.51,-0.00,-0.27,-0.17,0.00,0.00,0.00,22.87,
3f82,683749,-,-,-,-,-,-,-,-,-,0.01,-9.17,0.07,0.03,0.22,-0.11,18.27,79.83,-10.33,-,-0.06,9.03,-0.02,0.05,-0.25,-0.06,0.00,0.00,0.00,23.01,
3f82,683902,2000/1/0 4:11:25,22.36,950.92,14.50,167429,532.28,1153.75,3741.25,4310.00,0.04,-10.09,0.44,-0.07,0.17,-0.27,17.42,79.93,-10.10,11.69,0.03,9.65,0.50,-0.06,-0.21,-0.22,0.00,0.00,0.00,23.01,
3f82,684855,-,-,-,-,-,-,-,-,-,-0.41,-10.00,0.74,0.13,0.26,-0.05,18.49,79.14,-10.03,-,-0.55,9.99,0.48,0.13,-0.30,-0.01,0.00,0.00,0.00,23.16,
3f82,685011,2000/1/0 4:11:26,22.36,950.92,14.47,165321,532.28,221.25,3931.25,870.00,-0.09,-10.11,0.40,-0.45,0.01,-0.45,18.05,79.89,-8.56,11.69,-0.27,10.03,0.09,-0.46,-0.08,-0.41,0.00,0.00,0.00,23.16,
3f82,685964,-,-,-,-,-,-,-,-,-,-0.62,-9.30,1.01,0.18,-0.31,0.03,16.27,81.12,-11.08,-,-0.76,9.01,0.90,0.19,0.29,0.05,0.00,0.00,0.00,23.01,
3f82,686116,2000/1/0 4:11:27,22.37,950.92,14.45,164842,532.37,223.75,3930.00,880.00,-1.00,-10.44,0.75,-0.25,0.17,-0.45,13.96,82.58,-11.20,11.69,-1.01,10.07,0.77,-0.26,-0.23,-0.39,0.00,0.00,0.00,23.01,
3f82,687071,-,-,-,-,-,-,-,-,-,-1.16,-9.42,1.63,-0.13,0.11,-0.00,13.27,82.18,-13.36,-,-1.31,9.09,1.41,-0.13,-0.14,0.04,0.00,0.00,0.00,23.01,
3f82,687227,2000/1/0 4:11:28,22.37,950.92,14.45,163892,532.37,215.00,3928.75,840.00,-1.84,-9.59,1.95,-0.07,0.11,0.13,11.52,83.38,-12.89,11.69,-1.86,9.30,1.81,-0.06,-0.13,0.17,0.00,0.00,0.00,23.11,
3f82,688177,-,-,-,-,-,-,-,-,-,-1.57,-10.02,1.49,0.26,0.08,0.08,13.27,82.72,-11.33,-,-1.61,9.80,1.22,0.26,-0.10,0.12,0.00,0.00,0.00,23.01,
3f82,688330,2000/1/0 4:11:29,22.38,950.92,14.44,161412,532.37,1125.00,3735.00,4200.00,-0.38,-10.17,1.33,0.12,0.08,0.10,15.08,81.22,-8.33,12.16,-0.44,10.02,1.19,0.13,-0.10,0.14,0.00,0.00,0.00,22.96,
3f82,689282,-,-,-,-,-,-,-,-,-,-0.85,-9.82,0.86,-0.24,0.27,-0.48,13.52,82.87,-7.89,-,-0.96,9.64,0.71,-0.24,-0.33,-0.43,0.00,0.00,0.00,23.01,
3f82,689438,2000/1/0 4:11:30,22.39,950.92,14.44,159154,532.45,221.25,3931.25,870.00,-1.18,-9.71,1.14,-0.02,-0.08,-0.05,12.47,82.26,-9.63,12.16,-1.24,9.55,1.01,-0.01,0.05,-0.02,0.00,0.00,0.00,23.16,
3f82,690389,-,-,-,-,-,-,-,-,-,-1.19,-9.65,1.23,0.03,-0.07,-0.02,13.45,82.70,-10.61,-,-1.35,9.51,0.99,0.04,0.04,0.00,0.00,0.00,0.00,22.96,
3f82,690540,2000/1/0 4:11:31,22.39,950.91,14.46,156958,532.45,203.75,3932.50,810.00,-1.23,-9.57,1.47,0.02,0.01,-0.08,11.55,83.03,-10.89,11.69,-1.30,9.25,1.40,0.03,-0.03,-0.04,0.00,0.00,0.00,22.87,
3f82,691491,-,-,-,-,-,-,-,-,-,-1.67,-9.68,1.18,0.04,0.05,-0.17,10.61,82.78,-10.41,-,-1.67,9.56,1.02,0.05,-0.09,-0.13,0.00,0.00,0.00,22.77,
3f82,691644,2000/1/0 4:11:33,22.40,950.92,14.50,156240,532.37,201.25,3933.75,790.00,-1.21,-9.63,1.00,-0.08,-0.07,-0.18,13.07,82.72,-7.47,11.69,-1.23,9.52,0.90,-0.07,0.03,-0.16,0.00,0.00,0.00,23.16,
3f82,692596,-,-,-,-,-,-,-,-,-,-1.64,-9.76,0.96,0.06,-0.15,-0.07,11.88,83.16,-8.70,-,-1.70,9.47,0.78,0.06,0.13,-0.04,0.00,0.00,0.00,23.16,
3f82,692749,2000/1/0 4:11:34,22.40,950.91,14.54,155528,532.45,196.25,3933.75,770.00,-1.46,-9.71,1.14,0.12,-0.02,0.07,12.25,82.93,-9.22,12.16,-1.57,9.52,0.96,0.13,0.00,0.09,0.00,0.00,0.00,22.87,
3f82,693696,-,-,-,-,-,-,-,-,-,-1.26,-9.68,1.21,0.05,0.03,0.01,12.58,83.25,-8.36,-,-1.39,9.65,1.06,0.06,-0.06,0.05,0.00,0.00,0.00,23.16,
3f82,693846,2000/1/0 4:11:35,22.41,950.91,14.59,156240,532.45,212.50,3935.00,830.00,-0.88,-9.31,0.84,-0.10,0.20,-0.25,13.15,82.34,-7.18,12.16,-1.04,9.14,0.79,-0.08,-0.25,-0.20,0.00,0.00,0.00,23.01,
3f82,694798,-,-,-,-,-,-,-,-,-,-1.18,-9.86,0.91,0.20,-0.09,0.26,13.29,82.04,-6.37,-,-1.18,9.64,0.67,0.20,0.08,0.29,0.00,0.00,0.00,23.16,
3f82,694949,2000/1/0 4:11:36,22.42,950.90,14.62,155386,532.54,213.75,3933.75,840.00,-0.63,-9.53,0.73,-0.05,-0.10,-0.07,13.91,81.89,-4.49,12.16,-0.78,9.27,0.57,-0.04,0.07,-0.04,0.00,0.00,0.00,23.16,
3f82,695901,-,-,-,-,-,-,-,-,-,-0.58,-10.04,0.73,0.10,-0.23,0.04,15.36,81.70,-5.36,-,-0.64,10.02,0.49,0.11,0.21,0.06,0.00,0.00,0.00,23.16,
3f82,696053,2000/1/0 4:11:37,22.42,950.90,14.67,155670,532.54,205.00,3931.25,810.00,-0.65,-9.68,0.63,-0.03,0.08,0.05,14.15,81.48,-5.60,11.69,-0.69,9.39,0.56,-0.02,-0.11,0.10,0.00,0.00,0.00,23.16,
3f82,697002,-,-,-,-,-,-,-,-,-,-0.85,-10.22,0.55,0.19,-0.10,-0.06,14.76,81.58,-5.23,-,-0.97,10.05,0.29,0.20,0.07,-0.04,0.00,0.00,0.00,23.16,
3f82,697158,2000/1/0 4:11:38,22.43,950.91,14.71,155670,532.45,215.00,3932.50,840.00,-1.18,-9.63,1.33,0.04,-0.04,0.12,11.44,83.13,-6.61,12.16,-1.19,9.32,1.25,0.04,0.02,0.16,0.00,0.00,0.00,23.16,
3f82,698105,-,-,-,-,-,-,-,-,-,-1.13,-9.76,1.16,0.04,0.05,-0.11,13.55,82.26,-5.33,-,-1.26,9.64,0.91,0.05,-0.09,-0.08,0.00,0.00,0.00,23.40,
3f82,698257,2000/1/0 4:11:39,22.44,950.91,14.75,154682,532.45,212.50,3933.75,830.00,-0.96,-10.08,0.95,0.20,-0.22,0.06,12.54,82.78,-4.78,12.63,-1.05,9.86,0.82,0.20,0.20,0.07,0.00,0.00,0.00,22.87,
3f82,699206,-,-,-,-,-,-,-,-,-,-0.83,-9.96,0.93,-0.01,-0.03,0.06,13.29,82.02,-4.18,-,-0.91,9.80,0.83,-0.01,0.01,0.09,0.00,0.00,0.00,23.16,
3f82,699359,2000/1/0 4:11:40,22.44,950.95,14.78,153431,532.19,217.50,3930.00,860.00,-1.28,-10.08,0.77,0.02,0.19,-0.20,15.30,81.10,-5.55,12.16,-1.45,9.92,0.46,0.02,-0.24,-0.17,0.00,0.00,0.00,22.87,
3f82,700309,-,-,-,-,-,-,-,-,-,-0.90,-9.81,0.73,0.10,0.05,-0.07,13.64,82.17,-4.19,-,-0.86,9.50,0.50,0.10,-0.08,-0.04,0.00,0.00,0.00,22.96,
3f82,700462,2000/1/0 4:11:41,22.45,950.92,14.81,153018,532.37,206.25,3931.25,810.00,-1.03,-9.63,1.12,0.15,-0.08,-0.05,12.48,82.58,-6.18,13.56,-1.24,9.48,0.94,0.16,0.05,-0.03,0.00,0.00,0.00,23.16,
3f82,701412,-,-,-,-,-,-,-,-,-,-1.34,-9.88,0.90,-0.03,-0.07,-0.03,12.07,83.00,-4.65,-,-1.40,9.61,0.66,-0.03,0.03,-0.00,0.00,0.00,0.00,23.16,
3f82,701567,2000/1/0 4:11:42,22.45,950.92,14.85,153431,532.37,236.25,3930.00,920.00,-1.38,-9.74,0.93,-0.15,0.04,-0.08,11.62,83.72,-5.29,11.69,-1.49,9.59,0.66,-0.14,-0.08,-0.05,0.00,0.00,0.00,23.11,
3f82,702519,-,-,-,-,-,-,-,-,-,-1.49,-9.60,1.15,0.03,-0.10,-0.19,10.96,84.20,-6.74,-,-1.48,9.34,1.12,0.03,0.07,-0.17,0.00,0.00,0.00,23.35,
3f82,702671,2000/1/0 4:11:44,22.46,950.92,14.88,153846,532.37,221.25,3928.75,870.00,-1.22,-9.73,0.78,-0.09,0.02,-0.18,12.60,82.37,-6.59,12.16,-1.29,9.48,0.64,-0.09,-0.06,-0.15,0.00,0.00,0.00,23.16,
3f82,703623,-,-,-,-,-,-,-,-,-,-1.28,-9.52,1.26,-0.02,0.01,-0.24,10.99,83.12,-7.25,-,-1.44,9.45,1.09,-0.01,-0.05,-0.20,0.00,0.00,0.00,23.20,
3f82,703777,2000/1/0 4:11:45,22.47,950.92,14.92,152335,532.45,235.00,3928.75,920.00,-1.29,-9.41,1.34,0.13,-0.20,0.06,11.62,83.16,-6.56,12.16,-1.33,9.25,1.18,0.15,0.19,0.07,0.00,0.00,0.00,23.16,
3f82,704724,-,-,-,-,-,-,-,-,-,-1.58,-10.12,0.77,-0.02,0.00,-0.10,11.60,82.72,-6.36,-,-1.66,9.87,0.62,-0.01,-0.04,-0.07,0.00,0.00,0.00,22.87,
3f82,704881,2000/1/0 4:11:46,22.47,950.91,14.94,152744,532.45,222.50,3930.00,870.00,-1.69,-9.73,1.26,0.07,-0.12,0.00,10.10,83.78,-7.19,12.16,-1.78,9.61,1.09,0.07,0.09,0.03,0.00,0.00,0.00,23.11,
3f82,705828,-,-,-,-,-,-,-,-,-,-1.66,-9.59,1.59,-0.01,0.04,-0.15,9.41,84.39,-7.06,-,-1.79,9.39,1.31,-0.00,-0.08,-0.11,0.00,0.00,0.00,23.01,
3f82,705982,2000/1/0 4:11:47,22.47,950.91,14.96,153431,532.37,217.50,3932.50,860.00,-1.59,-9.54,1.32,0.01,-0.06,-0.05,9.35,84.45,-6.88,12.16,-1.67,9.40,1.29,0.02,0.03,-0.03,0.00,0.00,0.00,22.87,
3f82,706931,-,-,-,-,-,-,-,-,-,-1.99,-9.61,1.41,-0.04,-0.05,-0.14,8.99,84.68,-7.23,-,-2.15,9.46,1.27,-0.03,0.01,-0.11,0.00,0.00,0.00,23.01,
3f82,707085,2000/1/0 4:11:48,22.48,950.91,14.97,152744,532.37,216.25,3930.00,840.00,-2.20,-9.81,1.14,-0.05,0.01,-0.08,8.77,84.92,-7.04,11.69,-2.30,9.72,0.95,-0.05,-0.05,-0.06,0.00,0.00,0.00,23.30,
